"trial_type","trial_index","time_elapsed","internal_node_id","subject","type","experiment","code_version","rt","stimulus","key_press","event","button_pressed","test_answer","pitch","interval","offset"
"pavlovia","0","34","0.0-0.0","5","1","ITFDR2","v1.0","","","","","","","","",""
"html-keyboard-response","1","14293","0.0-1.0","5","1","ITFDR2","v1.0","14255.700000047684","<p>Welcome to the study! Press any key to begin reading the instructions.</p>","32","welcome","","","","",""
"html-button-response","2","62083","0.0-2.0","5","1","ITFDR2","v1.0","47782.199999928474","<p>Before we begin, please close all other browser tabs and programs that may produce sound alerts or notifications, or which you may find distracting.</p><p>In this study, we will ask you to listen to sequences of sounds and to make some judgments about them. Because of this, it's important that you complete this study using headphones while seated in a quiet environment. If it's not currently possible for you to satisfy this requirement, please return to complete the experiment at a later time.</p><p>If you are currently using Safari to access the study, please note that the task may not run properly in this browser, and it may prevent you from hearing any sounds. You should copy the URL from this page and paste it into a different web browser to complete the study there, instead. Chrome, Firefox, and Edge are all officially supported. We apologize for any inconvenience!</p><p>If the text instructions appear too large or too small on your screen, you should adjust your browser's zoom level at this time. When you are ready to continue, press the button below.</p>","","requirements","0","","","",""
"html-button-response","3","73001","0.0-3.0","5","1","ITFDR2","v1.0","10915.899999976158","<p>First, we'll complete an audio test to make sure you can accurately hear the sounds we'll be presenting throughout the study. In this test, you will hear several sets of three tones. For each set, your goal is to determine which of the three tones is the <strong>quietest</strong>.</p><p>After hearing each set of tones, you will be prompted to press the 1, 2, or 3 key to indicate whether the first, second, or third tone was the quietest.</p><p>Press the button below to begin the test.</p>","","headphone_test_instructions","0","","","",""
"audio-keyboard-response","4","79469","0.0-4.0-0.0","5","1","ITFDR2","v1.0","null","headphone_check/antiphase_HC_ISO.wav","null","headphone_test_tones","","50","","",""
"html-keyboard-response","5","81152","0.0-4.0-1.0","5","1","ITFDR2","v1.0","1681.8000000715256","<p>Press the 1, 2, or 3 key on your keyboard to indicate which tone was the quietest.</p><p>If you were not able to hear three tones, check that your headphones are working and that your volume is turned up, then press 0.</p>","50","headphone_test_response","","50","","",""
"audio-keyboard-response","6","86669","0.0-4.0-0.1","5","1","ITFDR2","v1.0","null","headphone_check/antiphase_HC_OSI.wav","null","headphone_test_tones","","50","","",""
"html-keyboard-response","7","87780","0.0-4.0-1.1","5","1","ITFDR2","v1.0","1109.5","<p>Press the 1, 2, or 3 key on your keyboard to indicate which tone was the quietest.</p><p>If you were not able to hear three tones, check that your headphones are working and that your volume is turned up, then press 0.</p>","50","headphone_test_response","","50","","",""
"audio-keyboard-response","8","93288","0.0-4.0-0.2","5","1","ITFDR2","v1.0","null","headphone_check/antiphase_HC_IOS.wav","null","headphone_test_tones","","51","","",""
"html-keyboard-response","9","98633","0.0-4.0-1.2","5","1","ITFDR2","v1.0","5343.300000071526","<p>Press the 1, 2, or 3 key on your keyboard to indicate which tone was the quietest.</p><p>If you were not able to hear three tones, check that your headphones are working and that your volume is turned up, then press 0.</p>","51","headphone_test_response","","51","","",""
"audio-keyboard-response","10","104148","0.0-4.0-0.3","5","1","ITFDR2","v1.0","null","headphone_check/antiphase_HC_SIO.wav","null","headphone_test_tones","","49","","",""
"html-keyboard-response","11","105287","0.0-4.0-1.3","5","1","ITFDR2","v1.0","1136.3999999761581","<p>Press the 1, 2, or 3 key on your keyboard to indicate which tone was the quietest.</p><p>If you were not able to hear three tones, check that your headphones are working and that your volume is turned up, then press 0.</p>","51","headphone_test_response","","49","","",""
"audio-keyboard-response","12","110798","0.0-4.0-0.4","5","1","ITFDR2","v1.0","null","headphone_check/antiphase_HC_OIS.wav","null","headphone_test_tones","","51","","",""
"html-keyboard-response","13","112809","0.0-4.0-1.4","5","1","ITFDR2","v1.0","2010.1000000238419","<p>Press the 1, 2, or 3 key on your keyboard to indicate which tone was the quietest.</p><p>If you were not able to hear three tones, check that your headphones are working and that your volume is turned up, then press 0.</p>","50","headphone_test_response","","51","","",""
"audio-keyboard-response","14","118327","0.0-4.0-0.5","5","1","ITFDR2","v1.0","null","headphone_check/antiphase_HC_SOI.wav","null","headphone_test_tones","","49","","",""
"html-keyboard-response","15","119475","0.0-4.0-1.5","5","1","ITFDR2","v1.0","1145.7999999523163","<p>Press the 1, 2, or 3 key on your keyboard to indicate which tone was the quietest.</p><p>If you were not able to hear three tones, check that your headphones are working and that your volume is turned up, then press 0.</p>","49","headphone_test_response","","49","","",""
"html-keyboard-response","16","192536","0.0-6.0","5","1","ITFDR2","v1.0","71552","<p>Thank you for completing the audio test! Next, you will be asked to tap your finger for a short time at the rate that feels most natural and comfortable to you.</p><p>If you are right-handed, you should tap the J key with your right index finger during this task. If you are left-handed, you should instead tap the F key with your left index finger.</p><p>While completing this exercise, you should rest your wrist on a solid surface and keep your hand still, moving only your index finger to tap the specified key. Go ahead and place your hand in the appropriate position at this time. You should begin tapping when you see a cross (+) appear on the screen, and you should continue tapping until it disappears.</p><p>Remember, you should tap at whatever rate feels most <strong>natural and comfortable</strong> to you. Press the SPACEBAR when you are ready to begin.</p>","32","tap_task_instructions","","","","",""
"audio-multiple-response","17","214550","0.0-7.0","5","1","ITFDR2","v1.0","4869,9869,11960,13051,18699","","74,74,74,38,32","tapping_test","","","","",""
"html-button-response","18","272788","0.0-8.0","5","1","ITFDR2","v1.0","56732.199999928474","<p>Now we're ready to proceed to the main task.</p><p><strong>Instructions:</strong> On each trial, you will hear a sequence of sounds marking a steady beat. After five beats there will be a short period of silence lasting for two additional beats, and these silent beats will be followed by one final sound. This final sound will be played either earlier or later than the next beat should have occurred. Your goal is to track the beat through the silent period, in order to determine whether that final sound was played too early or too late. After each sequence, you will be asked to <strong>press 1 if the final tone was played early</strong> or <strong>2 if it was played late</strong>.</p><p>We're interested in the limits of human abilities, so you may sometimes find it difficult to tell whether the final sound played early or late. It's okay if you're not always certain - just give it your best guess.</p><p>Let's try a few practice sequences to start out. This will give you the chance to familiarize yourself with the task and to adjust your volume to a comfortable level. Click the button below when you are ready to start practicing.</p>","","main_instructions","0","","","",""
"audio-keyboard-response","19","279107","0.0-9.0-0.0","5","1","ITFDR2","v1.0","null","stimuli/sequence_1_F4_500_30.wav","null","practice_tones","","","F4","500","30"
"html-keyboard-response","20","283181","0.0-9.0-1.0","5","1","ITFDR2","v1.0","4071.7999999523163","Did the final tone begin (1) early or (2) late?","50","practrice_response","","","F4","500","30"
"html-keyboard-response","21","287058","0.0-9.0-2.0","5","1","ITFDR2","v1.0","3875.6999999284744","<strong>Answer:</strong> The final tone began <strong>late</strong> on this trial. Press any key to continue.","86","practice_feedback","","","","",""
"audio-keyboard-response","22","292467","0.0-9.0-0.1","5","1","ITFDR2","v1.0","null","stimuli/sequence_1_F6_500_30.wav","null","practice_tones","","","F6","500","30"
"html-keyboard-response","23","295014","0.0-9.0-1.1","5","1","ITFDR2","v1.0","2545.7999999523163","Did the final tone begin (1) early or (2) late?","50","practrice_response","","","F6","500","30"
"html-keyboard-response","24","297689","0.0-9.0-2.1","5","1","ITFDR2","v1.0","2672.7999999523163","<strong>Answer:</strong> The final tone began <strong>late</strong> on this trial. Press any key to continue.","86","practice_feedback","","","","",""
"audio-keyboard-response","25","303107","0.0-9.0-0.2","5","1","ITFDR2","v1.0","null","stimuli/sequence_1_G4_500_30.wav","null","practice_tones","","","G4","500","30"
"html-keyboard-response","26","304466","0.0-9.0-1.2","5","1","ITFDR2","v1.0","1357.1000000238419","Did the final tone begin (1) early or (2) late?","49","practrice_response","","","G4","500","30"
"html-keyboard-response","27","307336","0.0-9.0-2.2","5","1","ITFDR2","v1.0","2868.7999999523163","<strong>Answer:</strong> The final tone began <strong>late</strong> on this trial. Press any key to continue.","32","practice_feedback","","","","",""
"audio-keyboard-response","28","312437","0.0-9.0-0.3","5","1","ITFDR2","v1.0","null","stimuli/sequence_1_F6_500_-30.wav","null","practice_tones","","","F6","500","-30"
"html-keyboard-response","29","313833","0.0-9.0-1.3","5","1","ITFDR2","v1.0","1393.3999999761581","Did the final tone begin (1) early or (2) late?","50","practrice_response","","","F6","500","-30"
"html-keyboard-response","30","317721","0.0-9.0-2.3","5","1","ITFDR2","v1.0","3887.7000000476837","<strong>Answer:</strong> The final tone began <strong>early</strong> on this trial. Press any key to continue.","86","practice_feedback","","","","",""
"audio-keyboard-response","31","322838","0.0-9.0-0.4","5","1","ITFDR2","v1.0","null","stimuli/sequence_1_G6_500_-30.wav","null","practice_tones","","","G6","500","-30"
"html-keyboard-response","32","327823","0.0-9.0-1.4","5","1","ITFDR2","v1.0","4983.900000095367","Did the final tone begin (1) early or (2) late?","49","practrice_response","","","G6","500","-30"
"html-keyboard-response","33","329294","0.0-9.0-2.4","5","1","ITFDR2","v1.0","1470.0999999046326","<strong>Answer:</strong> The final tone began <strong>early</strong> on this trial. Press any key to continue.","86","practice_feedback","","","","",""
"audio-keyboard-response","34","334391","0.0-9.0-0.5","5","1","ITFDR2","v1.0","null","stimuli/sequence_1_G4_500_-30.wav","null","practice_tones","","","G4","500","-30"
"html-keyboard-response","35","336021","0.0-9.0-1.5","5","1","ITFDR2","v1.0","1627.8000000715256","Did the final tone begin (1) early or (2) late?","50","practrice_response","","","G4","500","-30"
"html-keyboard-response","36","337194","0.0-9.0-2.5","5","1","ITFDR2","v1.0","1172.3999999761581","<strong>Answer:</strong> The final tone began <strong>early</strong> on this trial. Press any key to continue.","86","practice_feedback","","","","",""
"audio-keyboard-response","37","342591","0.0-9.0-0.6","5","1","ITFDR2","v1.0","null","stimuli/sequence_1_G6_500_30.wav","null","practice_tones","","","G6","500","30"
"html-keyboard-response","38","344122","0.0-9.0-1.6","5","1","ITFDR2","v1.0","1529.7999999523163","Did the final tone begin (1) early or (2) late?","50","practrice_response","","","G6","500","30"
"html-keyboard-response","39","347500","0.0-9.0-2.6","5","1","ITFDR2","v1.0","3376","<strong>Answer:</strong> The final tone began <strong>late</strong> on this trial. Press any key to continue.","32","practice_feedback","","","","",""
"audio-keyboard-response","40","352612","0.0-9.0-0.7","5","1","ITFDR2","v1.0","null","stimuli/sequence_1_F4_500_-30.wav","null","practice_tones","","","F4","500","-30"
"html-keyboard-response","41","353908","0.0-9.0-1.7","5","1","ITFDR2","v1.0","1294.4000000953674","Did the final tone begin (1) early or (2) late?","50","practrice_response","","","F4","500","-30"
"html-keyboard-response","42","355072","0.0-9.0-2.7","5","1","ITFDR2","v1.0","1163.5","<strong>Answer:</strong> The final tone began <strong>early</strong> on this trial. Press any key to continue.","32","practice_feedback","","","","",""
"html-button-response","43","382623","0.0-10.0","5","1","ITFDR2","v1.0","26041.199999928474","<p>You're now ready to begin!</p><p>If the practice trials were too loud or too soft, please finish adjusting your volume at this time. It is important that you do not adjust your volume any further until the study has concluded.</p><p>Please note that the trials will be organized into 8 sections, each of which will last about 5 minutes. You will have the opportunity to take a break after each section.</p><p>Press the button below to begin.</p>","","summary_instructions","0","","","",""
"audio-keyboard-response","44","389144","0.0-11.0","5","1","ITFDR2","v1.0","null","stimuli/sequence_1_B5_600_10.wav","null","tones","","","B5","600","10"
"html-keyboard-response","45","392577","0.0-12.0","5","1","ITFDR2","v1.0","3431.600000023842","Did the final tone begin (1) early or (2) late?","50","response","","","B5","600","10"
"audio-keyboard-response","46","398644","0.0-13.0","5","1","ITFDR2","v1.0","null","stimuli/sequence_1_Ds3_600_20.wav","null","tones","","","Ds3","600","20"
"html-keyboard-response","47","400017","0.0-14.0","5","1","ITFDR2","v1.0","1371","Did the final tone begin (1) early or (2) late?","50","response","","","Ds3","600","20"
"audio-keyboard-response","48","405844","0.0-15.0","5","1","ITFDR2","v1.0","null","stimuli/sequence_1_Ds5_600_-20.wav","null","tones","","","Ds5","600","-20"
"html-keyboard-response","49","407225","0.0-16.0","5","1","ITFDR2","v1.0","1380","Did the final tone begin (1) early or (2) late?","49","response","","","Ds5","600","-20"
"audio-keyboard-response","50","413004","0.0-17.0","5","1","ITFDR2","v1.0","null","stimuli/sequence_1_F7_600_-30.wav","null","tones","","","F7","600","-30"
"html-keyboard-response","51","414186","0.0-18.0","5","1","ITFDR2","v1.0","1181","Did the final tone begin (1) early or (2) late?","50","response","","","F7","600","-30"
"audio-keyboard-response","52","420084","0.0-19.0","5","1","ITFDR2","v1.0","null","stimuli/sequence_1_C5_600_-10.wav","null","tones","","","C5","600","-10"
"html-keyboard-response","53","421076","0.0-20.0","5","1","ITFDR2","v1.0","990.7999999523163","Did the final tone begin (1) early or (2) late?","50","response","","","C5","600","-10"
"audio-keyboard-response","54","427154","0.0-21.0","5","1","ITFDR2","v1.0","null","stimuli/sequence_1_B7_600_20.wav","null","tones","","","B7","600","20"
"html-keyboard-response","55","429297","0.0-22.0","5","1","ITFDR2","v1.0","2141.8000000715256","Did the final tone begin (1) early or (2) late?","49","response","","","B7","600","20"
"audio-keyboard-response","56","435194","0.0-23.0","5","1","ITFDR2","v1.0","null","stimuli/sequence_1_Ds3_600_-10.wav","null","tones","","","Ds3","600","-10"
"html-keyboard-response","57","435992","0.0-24.0","5","1","ITFDR2","v1.0","796.5999999046326","Did the final tone begin (1) early or (2) late?","50","response","","","Ds3","600","-10"
"audio-keyboard-response","58","440584","0.0-25.0","5","1","ITFDR2","v1.0","null","stimuli/sequence_1_B5_400_10.wav","null","tones","","","B5","400","10"
"html-keyboard-response","59","441960","0.0-26.0","5","1","ITFDR2","v1.0","1374.7999999523163","Did the final tone begin (1) early or (2) late?","49","response","","","B5","400","10"
"audio-keyboard-response","60","446424","0.0-27.0","5","1","ITFDR2","v1.0","null","stimuli/sequence_1_B7_400_-20.wav","null","tones","","","B7","400","-20"
"html-keyboard-response","61","447510","0.0-28.0","5","1","ITFDR2","v1.0","1084.2000000476837","Did the final tone begin (1) early or (2) late?","49","response","","","B7","400","-20"
"audio-keyboard-response","62","452194","0.0-29.0","5","1","ITFDR2","v1.0","null","stimuli/sequence_1_Fs3_400_30.wav","null","tones","","","Fs3","400","30"
"html-keyboard-response","63","453040","0.0-30.0","5","1","ITFDR2","v1.0","844.8000000715256","Did the final tone begin (1) early or (2) late?","50","response","","","Fs3","400","30"
"audio-keyboard-response","64","457544","0.0-31.0","5","1","ITFDR2","v1.0","null","stimuli/sequence_1_Gs7_400_-10.wav","null","tones","","","Gs7","400","-10"
"html-keyboard-response","65","460197","0.0-32.0","5","1","ITFDR2","v1.0","2652.8000000715256","Did the final tone begin (1) early or (2) late?","49","response","","","Gs7","400","-10"
"audio-keyboard-response","66","464822","0.0-33.0","5","1","ITFDR2","v1.0","null","stimuli/sequence_1_Gs5_400_20.wav","null","tones","","","Gs5","400","20"
"html-keyboard-response","67","467082","0.0-34.0","5","1","ITFDR2","v1.0","2258.7999999523163","Did the final tone begin (1) early or (2) late?","49","response","","","Gs5","400","20"
"audio-keyboard-response","68","471582","0.0-35.0","5","1","ITFDR2","v1.0","null","stimuli/sequence_1_A5_400_-20.wav","null","tones","","","A5","400","-20"
"html-keyboard-response","69","472478","0.0-36.0","5","1","ITFDR2","v1.0","894.5999999046326","Did the final tone begin (1) early or (2) late?","50","response","","","A5","400","-20"
"audio-keyboard-response","70","476952","0.0-37.0","5","1","ITFDR2","v1.0","null","stimuli/sequence_1_A3_400_-20.wav","null","tones","","","A3","400","-20"
"html-keyboard-response","71","478416","0.0-38.0","5","1","ITFDR2","v1.0","1461.9000000953674","Did the final tone begin (1) early or (2) late?","49","response","","","A3","400","-20"
"audio-keyboard-response","72","484313","0.0-39.0","5","1","ITFDR2","v1.0","null","stimuli/sequence_1_Gs7_600_-10.wav","null","tones","","","Gs7","600","-10"
"html-keyboard-response","73","485125","0.0-40.0","5","1","ITFDR2","v1.0","811.1000000238419","Did the final tone begin (1) early or (2) late?","50","response","","","Gs7","600","-10"
"audio-keyboard-response","74","491283","0.0-41.0","5","1","ITFDR2","v1.0","null","stimuli/sequence_1_B7_600_30.wav","null","tones","","","B7","600","30"
"html-keyboard-response","75","492191","0.0-42.0","5","1","ITFDR2","v1.0","906.8999999761581","Did the final tone begin (1) early or (2) late?","50","response","","","B7","600","30"
"audio-keyboard-response","76","498222","0.0-43.0","5","1","ITFDR2","v1.0","null","stimuli/sequence_1_Gs3_600_10.wav","null","tones","","","Gs3","600","10"
"html-keyboard-response","77","498895","0.0-44.0","5","1","ITFDR2","v1.0","671.2999999523163","Did the final tone begin (1) early or (2) late?","50","response","","","Gs3","600","10"
"audio-keyboard-response","78","504862","0.0-45.0","5","1","ITFDR2","v1.0","null","stimuli/sequence_1_C3_600_0.wav","null","tones","","","C3","600","0"
"html-keyboard-response","79","505645","0.0-46.0","5","1","ITFDR2","v1.0","780.9000000953674","Did the final tone begin (1) early or (2) late?","50","response","","","C3","600","0"
"audio-keyboard-response","80","511603","0.0-47.0","5","1","ITFDR2","v1.0","null","stimuli/sequence_1_B5_600_0.wav","null","tones","","","B5","600","0"
"html-keyboard-response","81","512365","0.0-48.0","5","1","ITFDR2","v1.0","760.6000000238419","Did the final tone begin (1) early or (2) late?","49","response","","","B5","600","0"
"audio-keyboard-response","82","518322","0.0-49.0","5","1","ITFDR2","v1.0","null","stimuli/sequence_1_B7_600_0.wav","null","tones","","","B7","600","0"
"html-keyboard-response","83","520206","0.0-50.0","5","1","ITFDR2","v1.0","1879.8999999761581","Did the final tone begin (1) early or (2) late?","49","response","","","B7","600","0"
"audio-keyboard-response","84","526355","0.0-51.0","5","1","ITFDR2","v1.0","null","stimuli/sequence_1_Ds5_600_30.wav","null","tones","","","Ds5","600","30"
"html-keyboard-response","85","527058","0.0-52.0","5","1","ITFDR2","v1.0","702.5","Did the final tone begin (1) early or (2) late?","50","response","","","Ds5","600","30"
"audio-keyboard-response","86","531605","0.0-53.0","5","1","ITFDR2","v1.0","null","stimuli/sequence_1_A3_400_0.wav","null","tones","","","A3","400","0"
"html-keyboard-response","87","532533","0.0-54.0","5","1","ITFDR2","v1.0","926.1000000238419","Did the final tone begin (1) early or (2) late?","49","response","","","A3","400","0"
"audio-keyboard-response","88","537045","0.0-55.0","5","1","ITFDR2","v1.0","null","stimuli/sequence_1_C5_400_-10.wav","null","tones","","","C5","400","-10"
"html-keyboard-response","89","537835","0.0-56.0","5","1","ITFDR2","v1.0","789.6000000238419","Did the final tone begin (1) early or (2) late?","50","response","","","C5","400","-10"
"audio-keyboard-response","90","542275","0.0-57.0","5","1","ITFDR2","v1.0","null","stimuli/sequence_1_A7_400_-30.wav","null","tones","","","A7","400","-30"
"html-keyboard-response","91","542810","0.0-58.0","5","1","ITFDR2","v1.0","533.8999999761581","Did the final tone begin (1) early or (2) late?","49","response","","","A7","400","-30"
"audio-keyboard-response","92","547405","0.0-59.0","5","1","ITFDR2","v1.0","null","stimuli/sequence_1_B3_400_10.wav","null","tones","","","B3","400","10"
"html-keyboard-response","93","548704","0.0-60.0","5","1","ITFDR2","v1.0","1298.1999999284744","Did the final tone begin (1) early or (2) late?","49","response","","","B3","400","10"
"audio-keyboard-response","94","553385","0.0-61.0","5","1","ITFDR2","v1.0","null","stimuli/sequence_1_Ds5_400_30.wav","null","tones","","","Ds5","400","30"
"html-keyboard-response","95","554722","0.0-62.0","5","1","ITFDR2","v1.0","1335.1000000238419","Did the final tone begin (1) early or (2) late?","49","response","","","Ds5","400","30"
"audio-keyboard-response","96","559315","0.0-63.0","5","1","ITFDR2","v1.0","null","stimuli/sequence_1_D7_400_10.wav","null","tones","","","D7","400","10"
"html-keyboard-response","97","560598","0.0-64.0","5","1","ITFDR2","v1.0","1281.6999999284744","Did the final tone begin (1) early or (2) late?","49","response","","","D7","400","10"
"audio-keyboard-response","98","565165","0.0-65.0","5","1","ITFDR2","v1.0","null","stimuli/sequence_1_F5_400_0.wav","null","tones","","","F5","400","0"
"html-keyboard-response","99","566455","0.0-66.0","5","1","ITFDR2","v1.0","1289.3000000715256","Did the final tone begin (1) early or (2) late?","49","response","","","F5","400","0"
"audio-keyboard-response","100","572475","0.0-67.0","5","1","ITFDR2","v1.0","null","stimuli/sequence_1_F7_600_10.wav","null","tones","","","F7","600","10"
"html-keyboard-response","101","573274","0.0-68.0","5","1","ITFDR2","v1.0","797.9000000953674","Did the final tone begin (1) early or (2) late?","50","response","","","F7","600","10"
"audio-keyboard-response","102","579434","0.0-69.0","5","1","ITFDR2","v1.0","null","stimuli/sequence_1_D3_600_30.wav","null","tones","","","D3","600","30"
"html-keyboard-response","103","580116","0.0-70.0","5","1","ITFDR2","v1.0","679.7999999523163","Did the final tone begin (1) early or (2) late?","50","response","","","D3","600","30"
"audio-keyboard-response","104","585915","0.0-71.0","5","1","ITFDR2","v1.0","null","stimuli/sequence_1_F5_600_-30.wav","null","tones","","","F5","600","-30"
"html-keyboard-response","105","587073","0.0-72.0","5","1","ITFDR2","v1.0","1157.0999999046326","Did the final tone begin (1) early or (2) late?","49","response","","","F5","600","-30"
"audio-keyboard-response","106","593155","0.0-73.0","5","1","ITFDR2","v1.0","null","stimuli/sequence_1_Fs5_600_20.wav","null","tones","","","Fs5","600","20"
"html-keyboard-response","107","593801","0.0-74.0","5","1","ITFDR2","v1.0","643.8000000715256","Did the final tone begin (1) early or (2) late?","50","response","","","Fs5","600","20"
"audio-keyboard-response","108","599635","0.0-75.0","5","1","ITFDR2","v1.0","null","stimuli/sequence_1_Fs3_600_-20.wav","null","tones","","","Fs3","600","-20"
"html-keyboard-response","109","601412","0.0-76.0","5","1","ITFDR2","v1.0","1775.8999999761581","Did the final tone begin (1) early or (2) late?","49","response","","","Fs3","600","-20"
"audio-keyboard-response","110","607265","0.0-77.0","5","1","ITFDR2","v1.0","null","stimuli/sequence_1_C7_600_-20.wav","null","tones","","","C7","600","-20"
"html-keyboard-response","111","608393","0.0-78.0","5","1","ITFDR2","v1.0","1127.0999999046326","Did the final tone begin (1) early or (2) late?","49","response","","","C7","600","-20"
"audio-keyboard-response","112","614165","0.0-79.0","5","1","ITFDR2","v1.0","null","stimuli/sequence_1_F3_600_-30.wav","null","tones","","","F3","600","-30"
"html-keyboard-response","113","615341","0.0-80.0","5","1","ITFDR2","v1.0","1174.9000000953674","Did the final tone begin (1) early or (2) late?","49","response","","","F3","600","-30"
"audio-keyboard-response","114","619985","0.0-81.0","5","1","ITFDR2","v1.0","null","stimuli/sequence_1_Gs7_400_20.wav","null","tones","","","Gs7","400","20"
"html-keyboard-response","115","621090","0.0-82.0","5","1","ITFDR2","v1.0","1103.7999999523163","Did the final tone begin (1) early or (2) late?","49","response","","","Gs7","400","20"
"audio-keyboard-response","116","625625","0.0-83.0","5","1","ITFDR2","v1.0","null","stimuli/sequence_1_Ds3_400_-10.wav","null","tones","","","Ds3","400","-10"
"html-keyboard-response","117","626511","0.0-84.0","5","1","ITFDR2","v1.0","884.8999999761581","Did the final tone begin (1) early or (2) late?","50","response","","","Ds3","400","-10"
"audio-keyboard-response","118","631185","0.0-85.0","5","1","ITFDR2","v1.0","null","stimuli/sequence_1_C7_400_30.wav","null","tones","","","C7","400","30"
"html-keyboard-response","119","634431","0.0-86.0","5","1","ITFDR2","v1.0","3244.3000000715256","Did the final tone begin (1) early or (2) late?","49","response","","","C7","400","30"
"audio-keyboard-response","120","638875","0.0-87.0","5","1","ITFDR2","v1.0","null","stimuli/sequence_1_Ds5_400_-30.wav","null","tones","","","Ds5","400","-30"
"html-keyboard-response","121","640416","0.0-88.0","5","1","ITFDR2","v1.0","1540.2999999523163","Did the final tone begin (1) early or (2) late?","49","response","","","Ds5","400","-30"
"audio-keyboard-response","122","644844","0.0-89.0","5","1","ITFDR2","v1.0","null","stimuli/sequence_1_C3_400_-30.wav","null","tones","","","C3","400","-30"
"html-keyboard-response","123","646233","0.0-90.0","5","1","ITFDR2","v1.0","1388","Did the final tone begin (1) early or (2) late?","49","response","","","C3","400","-30"
"audio-keyboard-response","124","650784","0.0-91.0","5","1","ITFDR2","v1.0","null","stimuli/sequence_1_Fs7_400_0.wav","null","tones","","","Fs7","400","0"
"html-keyboard-response","125","652557","0.0-92.0","5","1","ITFDR2","v1.0","1771.7999999523163","Did the final tone begin (1) early or (2) late?","49","response","","","Fs7","400","0"
"audio-keyboard-response","126","657184","0.0-93.0","5","1","ITFDR2","v1.0","null","stimuli/sequence_1_Ds3_400_20.wav","null","tones","","","Ds3","400","20"
"html-keyboard-response","127","658121","0.0-94.0","5","1","ITFDR2","v1.0","935.7000000476837","Did the final tone begin (1) early or (2) late?","49","response","","","Ds3","400","20"
"html-button-response","128","710137","0.0-95.0","5","1","ITFDR2","v1.0","50503.699999928474","<h3>You have completed section 1 of 8!</h3><p>When you are ready to continue, press the button below to begin the next section.</p><p><em>Please remember not to adjust your volume until the study has concluded.</em></p>","","break","0","","","",""
"audio-keyboard-response","129","717147","0.0-96.0","5","1","ITFDR2","v1.0","null","stimuli/sequence_1_Gs5_600_20.wav","null","tones","","","Gs5","600","20"
"html-keyboard-response","130","718108","0.0-97.0","5","1","ITFDR2","v1.0","959.4000000953674","Did the final tone begin (1) early or (2) late?","50","response","","","Gs5","600","20"
"audio-keyboard-response","131","724127","0.0-98.0","5","1","ITFDR2","v1.0","null","stimuli/sequence_1_F3_600_10.wav","null","tones","","","F3","600","10"
"html-keyboard-response","132","724992","0.0-99.0","5","1","ITFDR2","v1.0","863","Did the final tone begin (1) early or (2) late?","50","response","","","F3","600","10"
"audio-keyboard-response","133","730887","0.0-100.0","5","1","ITFDR2","v1.0","null","stimuli/sequence_1_B3_600_-10.wav","null","tones","","","B3","600","-10"
"html-keyboard-response","134","731922","0.0-101.0","5","1","ITFDR2","v1.0","1033.8000000715256","Did the final tone begin (1) early or (2) late?","50","response","","","B3","600","-10"
"audio-keyboard-response","135","737997","0.0-102.0","5","1","ITFDR2","v1.0","null","stimuli/sequence_1_F7_600_20.wav","null","tones","","","F7","600","20"
"html-keyboard-response","136","740159","0.0-103.0","5","1","ITFDR2","v1.0","2160.7999999523163","Did the final tone begin (1) early or (2) late?","50","response","","","F7","600","20"
"audio-keyboard-response","137","745958","0.0-104.0","5","1","ITFDR2","v1.0","null","stimuli/sequence_1_B7_600_-30.wav","null","tones","","","B7","600","-30"
"html-keyboard-response","138","746540","0.0-105.0","5","1","ITFDR2","v1.0","580.3999999761581","Did the final tone begin (1) early or (2) late?","50","response","","","B7","600","-30"
"audio-keyboard-response","139","752627","0.0-106.0","5","1","ITFDR2","v1.0","null","stimuli/sequence_1_C3_600_20.wav","null","tones","","","C3","600","20"
"html-keyboard-response","140","753170","0.0-107.0","5","1","ITFDR2","v1.0","541.4000000953674","Did the final tone begin (1) early or (2) late?","50","response","","","C3","600","20"
"audio-keyboard-response","141","758997","0.0-108.0","5","1","ITFDR2","v1.0","null","stimuli/sequence_1_D5_600_-20.wav","null","tones","","","D5","600","-20"
"html-keyboard-response","142","759730","0.0-109.0","5","1","ITFDR2","v1.0","731.5","Did the final tone begin (1) early or (2) late?","49","response","","","D5","600","-20"
"audio-keyboard-response","143","764248","0.0-110.0","5","1","ITFDR2","v1.0","null","stimuli/sequence_1_Ds5_400_-10.wav","null","tones","","","Ds5","400","-10"
"html-keyboard-response","144","764808","0.0-111.0","5","1","ITFDR2","v1.0","558.6999999284744","Did the final tone begin (1) early or (2) late?","49","response","","","Ds5","400","-10"
"audio-keyboard-response","145","769239","0.0-112.0","5","1","ITFDR2","v1.0","null","stimuli/sequence_1_Fs3_400_-30.wav","null","tones","","","Fs3","400","-30"
"html-keyboard-response","146","769849","0.0-113.0","5","1","ITFDR2","v1.0","608.7999999523163","Did the final tone begin (1) early or (2) late?","49","response","","","Fs3","400","-30"
"audio-keyboard-response","147","774429","0.0-114.0","5","1","ITFDR2","v1.0","null","stimuli/sequence_1_D5_400_0.wav","null","tones","","","D5","400","0"
"html-keyboard-response","148","775260","0.0-115.0","5","1","ITFDR2","v1.0","829.7000000476837","Did the final tone begin (1) early or (2) late?","49","response","","","D5","400","0"
"audio-keyboard-response","149","779809","0.0-116.0","5","1","ITFDR2","v1.0","null","stimuli/sequence_1_Gs3_400_0.wav","null","tones","","","Gs3","400","0"
"html-keyboard-response","150","780634","0.0-117.0","5","1","ITFDR2","v1.0","823.7000000476837","Did the final tone begin (1) early or (2) late?","49","response","","","Gs3","400","0"
"audio-keyboard-response","151","785279","0.0-118.0","5","1","ITFDR2","v1.0","null","stimuli/sequence_1_A3_400_20.wav","null","tones","","","A3","400","20"
"html-keyboard-response","152","785831","0.0-119.0","5","1","ITFDR2","v1.0","550.7000000476837","Did the final tone begin (1) early or (2) late?","49","response","","","A3","400","20"
"audio-keyboard-response","153","790429","0.0-120.0","5","1","ITFDR2","v1.0","null","stimuli/sequence_1_Gs5_400_10.wav","null","tones","","","Gs5","400","10"
"html-keyboard-response","154","791380","0.0-121.0","5","1","ITFDR2","v1.0","948.8999999761581","Did the final tone begin (1) early or (2) late?","49","response","","","Gs5","400","10"
"audio-keyboard-response","155","795869","0.0-122.0","5","1","ITFDR2","v1.0","null","stimuli/sequence_1_D3_400_-20.wav","null","tones","","","D3","400","-20"
"html-keyboard-response","156","796865","0.0-123.0","5","1","ITFDR2","v1.0","994.7000000476837","Did the final tone begin (1) early or (2) late?","49","response","","","D3","400","-20"
"audio-keyboard-response","157","802649","0.0-124.0","5","1","ITFDR2","v1.0","null","stimuli/sequence_1_Fs5_600_-30.wav","null","tones","","","Fs5","600","-30"
"html-keyboard-response","158","803412","0.0-125.0","5","1","ITFDR2","v1.0","761.2999999523163","Did the final tone begin (1) early or (2) late?","49","response","","","Fs5","600","-30"
"audio-keyboard-response","159","809429","0.0-126.0","5","1","ITFDR2","v1.0","null","stimuli/sequence_1_C5_600_10.wav","null","tones","","","C5","600","10"
"html-keyboard-response","160","810634","0.0-127.0","5","1","ITFDR2","v1.0","1204.1000000238419","Did the final tone begin (1) early or (2) late?","49","response","","","C5","600","10"
"audio-keyboard-response","161","816770","0.0-128.0","5","1","ITFDR2","v1.0","null","stimuli/sequence_1_B5_600_30.wav","null","tones","","","B5","600","30"
"html-keyboard-response","162","817805","0.0-129.0","5","1","ITFDR2","v1.0","1033.8000000715256","Did the final tone begin (1) early or (2) late?","50","response","","","B5","600","30"
"audio-keyboard-response","163","823839","0.0-130.0","5","1","ITFDR2","v1.0","null","stimuli/sequence_1_Gs7_600_10.wav","null","tones","","","Gs7","600","10"
"html-keyboard-response","164","824454","0.0-131.0","5","1","ITFDR2","v1.0","614.1000000238419","Did the final tone begin (1) early or (2) late?","50","response","","","Gs7","600","10"
"audio-keyboard-response","165","830358","0.0-132.0","5","1","ITFDR2","v1.0","null","stimuli/sequence_1_F5_600_-10.wav","null","tones","","","F5","600","-10"
"html-keyboard-response","166","831989","0.0-133.0","5","1","ITFDR2","v1.0","1629.8999999761581","Did the final tone begin (1) early or (2) late?","50","response","","","F5","600","-10"
"audio-keyboard-response","167","837888","0.0-134.0","5","1","ITFDR2","v1.0","null","stimuli/sequence_1_B7_600_-10.wav","null","tones","","","B7","600","-10"
"html-keyboard-response","168","838818","0.0-135.0","5","1","ITFDR2","v1.0","928.1999999284744","Did the final tone begin (1) early or (2) late?","49","response","","","B7","600","-10"
"audio-keyboard-response","169","844648","0.0-136.0","5","1","ITFDR2","v1.0","null","stimuli/sequence_1_C3_600_-20.wav","null","tones","","","C3","600","-20"
"html-keyboard-response","170","846313","0.0-137.0","5","1","ITFDR2","v1.0","1664","Did the final tone begin (1) early or (2) late?","49","response","","","C3","600","-20"
"audio-keyboard-response","171","850948","0.0-138.0","5","1","ITFDR2","v1.0","null","stimuli/sequence_1_Ds5_400_20.wav","null","tones","","","Ds5","400","20"
"html-keyboard-response","172","851824","0.0-139.0","5","1","ITFDR2","v1.0","874.8000000715256","Did the final tone begin (1) early or (2) late?","49","response","","","Ds5","400","20"
"audio-keyboard-response","173","856388","0.0-140.0","5","1","ITFDR2","v1.0","null","stimuli/sequence_1_D7_400_0.wav","null","tones","","","D7","400","0"
"html-keyboard-response","174","856913","0.0-141.0","5","1","ITFDR2","v1.0","523.7000000476837","Did the final tone begin (1) early or (2) late?","49","response","","","D7","400","0"
"audio-keyboard-response","175","861588","0.0-142.0","5","1","ITFDR2","v1.0","null","stimuli/sequence_1_Ds7_400_30.wav","null","tones","","","Ds7","400","30"
"html-keyboard-response","176","862145","0.0-143.0","5","1","ITFDR2","v1.0","555.7000000476837","Did the final tone begin (1) early or (2) late?","49","response","","","Ds7","400","30"
"audio-keyboard-response","177","866588","0.0-144.0","5","1","ITFDR2","v1.0","null","stimuli/sequence_1_F7_400_-30.wav","null","tones","","","F7","400","-30"
"html-keyboard-response","178","867344","0.0-145.0","5","1","ITFDR2","v1.0","754.6000000238419","Did the final tone begin (1) early or (2) late?","49","response","","","F7","400","-30"
"audio-keyboard-response","179","871948","0.0-146.0","5","1","ITFDR2","v1.0","null","stimuli/sequence_1_A3_400_10.wav","null","tones","","","A3","400","10"
"html-keyboard-response","180","872491","0.0-147.0","5","1","ITFDR2","v1.0","542","Did the final tone begin (1) early or (2) late?","49","response","","","A3","400","10"
"audio-keyboard-response","181","877029","0.0-148.0","5","1","ITFDR2","v1.0","null","stimuli/sequence_1_Fs7_400_-10.wav","null","tones","","","Fs7","400","-10"
"html-keyboard-response","182","877420","0.0-149.0","5","1","ITFDR2","v1.0","390.2999999523163","Did the final tone begin (1) early or (2) late?","49","response","","","Fs7","400","-10"
"audio-keyboard-response","183","882028","0.0-150.0","5","1","ITFDR2","v1.0","null","stimuli/sequence_1_A7_400_10.wav","null","tones","","","A7","400","10"
"html-keyboard-response","184","882436","0.0-151.0","5","1","ITFDR2","v1.0","407.10000002384186","Did the final tone begin (1) early or (2) late?","49","response","","","A7","400","10"
"audio-keyboard-response","185","888569","0.0-152.0","5","1","ITFDR2","v1.0","null","stimuli/sequence_1_D7_600_30.wav","null","tones","","","D7","600","30"
"html-keyboard-response","186","889622","0.0-153.0","5","1","ITFDR2","v1.0","1051.3999999761581","Did the final tone begin (1) early or (2) late?","49","response","","","D7","600","30"
"audio-keyboard-response","187","895769","0.0-154.0","5","1","ITFDR2","v1.0","null","stimuli/sequence_1_Fs3_600_30.wav","null","tones","","","Fs3","600","30"
"html-keyboard-response","188","896397","0.0-155.0","5","1","ITFDR2","v1.0","626.2000000476837","Did the final tone begin (1) early or (2) late?","50","response","","","Fs3","600","30"
"audio-keyboard-response","189","902248","0.0-156.0","5","1","ITFDR2","v1.0","null","stimuli/sequence_1_D7_600_-20.wav","null","tones","","","D7","600","-20"
"html-keyboard-response","190","902901","0.0-157.0","5","1","ITFDR2","v1.0","651.3999999761581","Did the final tone begin (1) early or (2) late?","49","response","","","D7","600","-20"
"audio-keyboard-response","191","908688","0.0-158.0","5","1","ITFDR2","v1.0","null","stimuli/sequence_1_Ds3_600_-30.wav","null","tones","","","Ds3","600","-30"
"html-keyboard-response","192","909310","0.0-159.0","5","1","ITFDR2","v1.0","619.9000000953674","Did the final tone begin (1) early or (2) late?","50","response","","","Ds3","600","-30"
"audio-keyboard-response","193","915268","0.0-160.0","5","1","ITFDR2","v1.0","null","stimuli/sequence_1_A7_600_0.wav","null","tones","","","A7","600","0"
"html-keyboard-response","194","918484","0.0-161.0","5","1","ITFDR2","v1.0","3214.399999976158","Did the final tone begin (1) early or (2) late?","49","response","","","A7","600","0"
"audio-keyboard-response","195","924428","0.0-162.0","5","1","ITFDR2","v1.0","null","stimuli/sequence_1_Gs5_600_0.wav","null","tones","","","Gs5","600","0"
"html-keyboard-response","196","926159","0.0-163.0","5","1","ITFDR2","v1.0","1729.1000000238419","Did the final tone begin (1) early or (2) late?","49","response","","","Gs5","600","0"
"audio-keyboard-response","197","932118","0.0-164.0","5","1","ITFDR2","v1.0","null","stimuli/sequence_1_Fs3_600_0.wav","null","tones","","","Fs3","600","0"
"html-keyboard-response","198","933296","0.0-165.0","5","1","ITFDR2","v1.0","1176.6000000238419","Did the final tone begin (1) early or (2) late?","49","response","","","Fs3","600","0"
"audio-keyboard-response","199","937808","0.0-166.0","5","1","ITFDR2","v1.0","null","stimuli/sequence_1_F3_400_-10.wav","null","tones","","","F3","400","-10"
"html-keyboard-response","200","939249","0.0-167.0","5","1","ITFDR2","v1.0","1439.2999999523163","Did the final tone begin (1) early or (2) late?","49","response","","","F3","400","-10"
"audio-keyboard-response","201","943888","0.0-168.0","5","1","ITFDR2","v1.0","null","stimuli/sequence_1_C7_400_20.wav","null","tones","","","C7","400","20"
"html-keyboard-response","202","945234","0.0-169.0","5","1","ITFDR2","v1.0","1344","Did the final tone begin (1) early or (2) late?","49","response","","","C7","400","20"
"audio-keyboard-response","203","949708","0.0-170.0","5","1","ITFDR2","v1.0","null","stimuli/sequence_1_C5_400_-20.wav","null","tones","","","C5","400","-20"
"html-keyboard-response","204","950867","0.0-171.0","5","1","ITFDR2","v1.0","1157.5","Did the final tone begin (1) early or (2) late?","49","response","","","C5","400","-20"
"audio-keyboard-response","205","955350","0.0-172.0","5","1","ITFDR2","v1.0","null","stimuli/sequence_1_Ds7_400_-20.wav","null","tones","","","Ds7","400","-20"
"html-keyboard-response","206","956102","0.0-173.0","5","1","ITFDR2","v1.0","750.5","Did the final tone begin (1) early or (2) late?","49","response","","","Ds7","400","-20"
"audio-keyboard-response","207","960790","0.0-174.0","5","1","ITFDR2","v1.0","null","stimuli/sequence_1_C5_400_30.wav","null","tones","","","C5","400","30"
"html-keyboard-response","208","961235","0.0-175.0","5","1","ITFDR2","v1.0","443","Did the final tone begin (1) early or (2) late?","49","response","","","C5","400","30"
"audio-keyboard-response","209","965669","0.0-176.0","5","1","ITFDR2","v1.0","null","stimuli/sequence_1_A5_400_-30.wav","null","tones","","","A5","400","-30"
"html-keyboard-response","210","966242","0.0-177.0","5","1","ITFDR2","v1.0","570.7999999523163","Did the final tone begin (1) early or (2) late?","49","response","","","A5","400","-30"
"audio-keyboard-response","211","970929","0.0-178.0","5","1","ITFDR2","v1.0","null","stimuli/sequence_1_F3_400_30.wav","null","tones","","","F3","400","30"
"html-keyboard-response","212","972414","0.0-179.0","5","1","ITFDR2","v1.0","1482.7999999523163","Did the final tone begin (1) early or (2) late?","49","response","","","F3","400","30"
"html-button-response","213","1225484","0.0-180.0","5","1","ITFDR2","v1.0","251566.69999992847","<h3>You have completed section 2 of 8!</h3><p>When you are ready to continue, press the button below to begin the next section.</p><p><em>Please remember not to adjust your volume until the study has concluded.</em></p>","","break","0","","","",""
"audio-keyboard-response","214","1232367","0.0-181.0","5","1","ITFDR2","v1.0","null","stimuli/sequence_1_D7_600_0.wav","null","tones","","","D7","600","0"
"html-keyboard-response","215","1233124","0.0-182.0","5","1","ITFDR2","v1.0","755.7000000476837","Did the final tone begin (1) early or (2) late?","50","response","","","D7","600","0"
"audio-keyboard-response","216","1239167","0.0-183.0","5","1","ITFDR2","v1.0","null","stimuli/sequence_1_B7_600_10.wav","null","tones","","","B7","600","10"
"html-keyboard-response","217","1240900","0.0-184.0","5","1","ITFDR2","v1.0","1732","Did the final tone begin (1) early or (2) late?","49","response","","","B7","600","10"
"audio-keyboard-response","218","1246927","0.0-185.0","5","1","ITFDR2","v1.0","null","stimuli/sequence_1_D3_600_10.wav","null","tones","","","D3","600","10"
"html-keyboard-response","219","1248799","0.0-186.0","5","1","ITFDR2","v1.0","1870.8000000715256","Did the final tone begin (1) early or (2) late?","50","response","","","D3","600","10"
"audio-keyboard-response","220","1254587","0.0-187.0","5","1","ITFDR2","v1.0","null","stimuli/sequence_1_D5_600_-30.wav","null","tones","","","D5","600","-30"
"html-keyboard-response","221","1257404","0.0-188.0","5","1","ITFDR2","v1.0","2816.600000023842","Did the final tone begin (1) early or (2) late?","49","response","","","D5","600","-30"
"audio-keyboard-response","222","1263547","0.0-189.0","5","1","ITFDR2","v1.0","null","stimuli/sequence_1_B3_600_30.wav","null","tones","","","B3","600","30"
"html-keyboard-response","223","1265414","0.0-190.0","5","1","ITFDR2","v1.0","1866","Did the final tone begin (1) early or (2) late?","49","response","","","B3","600","30"
"audio-keyboard-response","224","1271487","0.0-191.0","5","1","ITFDR2","v1.0","null","stimuli/sequence_1_A5_600_20.wav","null","tones","","","A5","600","20"
"html-keyboard-response","225","1273719","0.0-192.0","5","1","ITFDR2","v1.0","2231.2000000476837","Did the final tone begin (1) early or (2) late?","49","response","","","A5","600","20"
"audio-keyboard-response","226","1279637","0.0-193.0","5","1","ITFDR2","v1.0","null","stimuli/sequence_1_A3_600_-10.wav","null","tones","","","A3","600","-10"
"html-keyboard-response","227","1287258","0.0-194.0","5","1","ITFDR2","v1.0","7620.899999976158","Did the final tone begin (1) early or (2) late?","49","response","","","A3","600","-10"
"audio-keyboard-response","228","1291865","0.0-195.0","5","1","ITFDR2","v1.0","null","stimuli/sequence_1_Fs7_400_10.wav","null","tones","","","Fs7","400","10"
"html-keyboard-response","229","1293570","0.0-196.0","5","1","ITFDR2","v1.0","1702.8999999761581","Did the final tone begin (1) early or (2) late?","49","response","","","Fs7","400","10"
"audio-keyboard-response","230","1298076","0.0-197.0","5","1","ITFDR2","v1.0","null","stimuli/sequence_1_D5_400_-10.wav","null","tones","","","D5","400","-10"
"html-keyboard-response","231","1301780","0.0-198.0","5","1","ITFDR2","v1.0","3703.7000000476837","Did the final tone begin (1) early or (2) late?","49","response","","","D5","400","-10"
"audio-keyboard-response","232","1306265","0.0-199.0","5","1","ITFDR2","v1.0","null","stimuli/sequence_1_Gs3_400_-20.wav","null","tones","","","Gs3","400","-20"
"html-keyboard-response","233","1309180","0.0-200.0","5","1","ITFDR2","v1.0","2913.600000023842","Did the final tone begin (1) early or (2) late?","49","response","","","Gs3","400","-20"
"audio-keyboard-response","234","1313786","0.0-201.0","5","1","ITFDR2","v1.0","null","stimuli/sequence_1_C3_400_10.wav","null","tones","","","C3","400","10"
"html-keyboard-response","235","1315885","0.0-202.0","5","1","ITFDR2","v1.0","2097.2000000476837","Did the final tone begin (1) early or (2) late?","49","response","","","C3","400","10"
"audio-keyboard-response","236","1320555","0.0-203.0","5","1","ITFDR2","v1.0","null","stimuli/sequence_1_D7_400_30.wav","null","tones","","","D7","400","30"
"html-keyboard-response","237","1323004","0.0-204.0","5","1","ITFDR2","v1.0","2447.9000000953674","Did the final tone begin (1) early or (2) late?","49","response","","","D7","400","30"
"audio-keyboard-response","238","1327646","0.0-205.0","5","1","ITFDR2","v1.0","null","stimuli/sequence_1_Fs5_400_20.wav","null","tones","","","Fs5","400","20"
"html-keyboard-response","239","1328757","0.0-206.0","5","1","ITFDR2","v1.0","1109.4000000953674","Did the final tone begin (1) early or (2) late?","49","response","","","Fs5","400","20"
"audio-keyboard-response","240","1333235","0.0-207.0","5","1","ITFDR2","v1.0","null","stimuli/sequence_1_F5_400_-20.wav","null","tones","","","F5","400","-20"
"html-keyboard-response","241","1334744","0.0-208.0","5","1","ITFDR2","v1.0","1507.3999999761581","Did the final tone begin (1) early or (2) late?","49","response","","","F5","400","-20"
"audio-keyboard-response","242","1340646","0.0-209.0","5","1","ITFDR2","v1.0","null","stimuli/sequence_1_F7_600_-10.wav","null","tones","","","F7","600","-10"
"html-keyboard-response","243","1348508","0.0-210.0","5","1","ITFDR2","v1.0","7857.600000023842","Did the final tone begin (1) early or (2) late?","49","response","","","F7","600","-10"
"audio-keyboard-response","244","1354669","0.0-211.0","5","1","ITFDR2","v1.0","null","stimuli/sequence_1_Fs5_600_30.wav","null","tones","","","Fs5","600","30"
"html-keyboard-response","245","1356910","0.0-212.0","5","1","ITFDR2","v1.0","2239.7999999523163","Did the final tone begin (1) early or (2) late?","49","response","","","Fs5","600","30"
"audio-keyboard-response","246","1362989","0.0-213.0","5","1","ITFDR2","v1.0","null","stimuli/sequence_1_A7_600_20.wav","null","tones","","","A7","600","20"
"html-keyboard-response","247","1363834","0.0-214.0","5","1","ITFDR2","v1.0","843.7999999523163","Did the final tone begin (1) early or (2) late?","49","response","","","A7","600","20"
"audio-keyboard-response","248","1369668","0.0-215.0","5","1","ITFDR2","v1.0","null","stimuli/sequence_1_F7_600_-20.wav","null","tones","","","F7","600","-20"
"html-keyboard-response","249","1374031","0.0-216.0","5","1","ITFDR2","v1.0","4361.799999952316","Did the final tone begin (1) early or (2) late?","49","response","","","F7","600","-20"
"audio-keyboard-response","250","1379808","0.0-217.0","5","1","ITFDR2","v1.0","null","stimuli/sequence_1_Gs7_600_-30.wav","null","tones","","","Gs7","600","-30"
"html-keyboard-response","251","1385125","0.0-218.0","5","1","ITFDR2","v1.0","5315.099999904633","Did the final tone begin (1) early or (2) late?","49","response","","","Gs7","600","-30"
"audio-keyboard-response","252","1391268","0.0-219.0","5","1","ITFDR2","v1.0","null","stimuli/sequence_1_Gs7_600_30.wav","null","tones","","","Gs7","600","30"
"html-keyboard-response","253","1393324","0.0-220.0","5","1","ITFDR2","v1.0","2054.2000000476837","Did the final tone begin (1) early or (2) late?","49","response","","","Gs7","600","30"
"audio-keyboard-response","254","1399279","0.0-221.0","5","1","ITFDR2","v1.0","null","stimuli/sequence_1_F5_600_0.wav","null","tones","","","F5","600","0"
"html-keyboard-response","255","1402234","0.0-222.0","5","1","ITFDR2","v1.0","2953.899999976158","Did the final tone begin (1) early or (2) late?","49","response","","","F5","600","0"
"audio-keyboard-response","256","1406669","0.0-223.0","5","1","ITFDR2","v1.0","null","stimuli/sequence_1_F3_400_-30.wav","null","tones","","","F3","400","-30"
"html-keyboard-response","257","1410008","0.0-224.0","5","1","ITFDR2","v1.0","3338","Did the final tone begin (1) early or (2) late?","49","response","","","F3","400","-30"
"audio-keyboard-response","258","1414568","0.0-225.0","5","1","ITFDR2","v1.0","null","stimuli/sequence_1_Ds5_400_0.wav","null","tones","","","Ds5","400","0"
"html-keyboard-response","259","1419852","0.0-226.0","5","1","ITFDR2","v1.0","5281.899999976158","Did the final tone begin (1) early or (2) late?","49","response","","","Ds5","400","0"
"audio-keyboard-response","260","1424519","0.0-227.0","5","1","ITFDR2","v1.0","null","stimuli/sequence_1_A3_400_30.wav","null","tones","","","A3","400","30"
"html-keyboard-response","261","1426578","0.0-228.0","5","1","ITFDR2","v1.0","2057.399999976158","Did the final tone begin (1) early or (2) late?","49","response","","","A3","400","30"
"audio-keyboard-response","262","1431149","0.0-229.0","5","1","ITFDR2","v1.0","null","stimuli/sequence_1_Ds3_400_0.wav","null","tones","","","Ds3","400","0"
"html-keyboard-response","263","1431894","0.0-230.0","5","1","ITFDR2","v1.0","743.2000000476837","Did the final tone begin (1) early or (2) late?","49","response","","","Ds3","400","0"
"audio-keyboard-response","264","1436439","0.0-231.0","5","1","ITFDR2","v1.0","null","stimuli/sequence_1_Ds7_400_0.wav","null","tones","","","Ds7","400","0"
"html-keyboard-response","265","1437352","0.0-232.0","5","1","ITFDR2","v1.0","912.3000000715256","Did the final tone begin (1) early or (2) late?","50","response","","","Ds7","400","0"
"audio-keyboard-response","266","1441869","0.0-233.0","5","1","ITFDR2","v1.0","null","stimuli/sequence_1_A7_400_-10.wav","null","tones","","","A7","400","-10"
"html-keyboard-response","267","1443318","0.0-234.0","5","1","ITFDR2","v1.0","1447.8999999761581","Did the final tone begin (1) early or (2) late?","49","response","","","A7","400","-10"
"audio-keyboard-response","268","1447758","0.0-235.0","5","1","ITFDR2","v1.0","null","stimuli/sequence_1_Gs7_400_-30.wav","null","tones","","","Gs7","400","-30"
"html-keyboard-response","269","1448847","0.0-236.0","5","1","ITFDR2","v1.0","1087","Did the final tone begin (1) early or (2) late?","49","response","","","Gs7","400","-30"
"audio-keyboard-response","270","1454929","0.0-237.0","5","1","ITFDR2","v1.0","null","stimuli/sequence_1_B3_600_20.wav","null","tones","","","B3","600","20"
"html-keyboard-response","271","1455985","0.0-238.0","5","1","ITFDR2","v1.0","1054.8000000715256","Did the final tone begin (1) early or (2) late?","50","response","","","B3","600","20"
"audio-keyboard-response","272","1461948","0.0-239.0","5","1","ITFDR2","v1.0","null","stimuli/sequence_1_A3_600_0.wav","null","tones","","","A3","600","0"
"html-keyboard-response","273","1463041","0.0-240.0","5","1","ITFDR2","v1.0","1090.6000000238419","Did the final tone begin (1) early or (2) late?","49","response","","","A3","600","0"
"audio-keyboard-response","274","1468828","0.0-241.0","5","1","ITFDR2","v1.0","null","stimuli/sequence_1_A3_600_-30.wav","null","tones","","","A3","600","-30"
"html-keyboard-response","275","1470228","0.0-242.0","5","1","ITFDR2","v1.0","1398.5","Did the final tone begin (1) early or (2) late?","49","response","","","A3","600","-30"
"audio-keyboard-response","276","1476068","0.0-243.0","5","1","ITFDR2","v1.0","null","stimuli/sequence_1_A5_600_-20.wav","null","tones","","","A5","600","-20"
"html-keyboard-response","277","1477384","0.0-244.0","5","1","ITFDR2","v1.0","1314.7000000476837","Did the final tone begin (1) early or (2) late?","49","response","","","A5","600","-20"
"audio-keyboard-response","278","1483228","0.0-245.0","5","1","ITFDR2","v1.0","null","stimuli/sequence_1_F3_600_-20.wav","null","tones","","","F3","600","-20"
"html-keyboard-response","279","1484336","0.0-246.0","5","1","ITFDR2","v1.0","1106.1000000238419","Did the final tone begin (1) early or (2) late?","49","response","","","F3","600","-20"
"audio-keyboard-response","280","1490358","0.0-247.0","5","1","ITFDR2","v1.0","null","stimuli/sequence_1_A5_600_10.wav","null","tones","","","A5","600","10"
"html-keyboard-response","281","1491066","0.0-248.0","5","1","ITFDR2","v1.0","706.9000000953674","Did the final tone begin (1) early or (2) late?","49","response","","","A5","600","10"
"audio-keyboard-response","282","1496969","0.0-249.0","5","1","ITFDR2","v1.0","null","stimuli/sequence_1_Fs5_600_-10.wav","null","tones","","","Fs5","600","-10"
"html-keyboard-response","283","1500942","0.0-250.0","5","1","ITFDR2","v1.0","3971.5","Did the final tone begin (1) early or (2) late?","49","response","","","Fs5","600","-10"
"audio-keyboard-response","284","1505588","0.0-251.0","5","1","ITFDR2","v1.0","null","stimuli/sequence_1_Ds7_400_20.wav","null","tones","","","Ds7","400","20"
"html-keyboard-response","285","1514832","0.0-252.0","5","1","ITFDR2","v1.0","9242.799999952316","Did the final tone begin (1) early or (2) late?","49","response","","","Ds7","400","20"
"audio-keyboard-response","286","1519308","0.0-253.0","5","1","ITFDR2","v1.0","null","stimuli/sequence_1_Fs7_400_-20.wav","null","tones","","","Fs7","400","-20"
"html-keyboard-response","287","1521619","0.0-254.0","5","1","ITFDR2","v1.0","2309.9000000953674","Did the final tone begin (1) early or (2) late?","49","response","","","Fs7","400","-20"
"audio-keyboard-response","288","1526308","0.0-255.0","5","1","ITFDR2","v1.0","null","stimuli/sequence_1_A5_400_30.wav","null","tones","","","A5","400","30"
"html-keyboard-response","289","1532273","0.0-256.0","5","1","ITFDR2","v1.0","5965","Did the final tone begin (1) early or (2) late?","49","response","","","A5","400","30"
"audio-keyboard-response","290","1536906","0.0-257.0","5","1","ITFDR2","v1.0","null","stimuli/sequence_1_F3_400_20.wav","null","tones","","","F3","400","20"
"html-keyboard-response","291","1539588","0.0-258.0","5","1","ITFDR2","v1.0","2680.1999999284744","Did the final tone begin (1) early or (2) late?","49","response","","","F3","400","20"
"audio-keyboard-response","292","1544106","0.0-259.0","5","1","ITFDR2","v1.0","null","stimuli/sequence_1_A3_400_-10.wav","null","tones","","","A3","400","-10"
"html-keyboard-response","293","1546802","0.0-260.0","5","1","ITFDR2","v1.0","2693.7000000476837","Did the final tone begin (1) early or (2) late?","49","response","","","A3","400","-10"
"audio-keyboard-response","294","1551386","0.0-261.0","5","1","ITFDR2","v1.0","null","stimuli/sequence_1_Ds5_400_10.wav","null","tones","","","Ds5","400","10"
"html-keyboard-response","295","1552045","0.0-262.0","5","1","ITFDR2","v1.0","657.1999999284744","Did the final tone begin (1) early or (2) late?","49","response","","","Ds5","400","10"
"audio-keyboard-response","296","1556477","0.0-263.0","5","1","ITFDR2","v1.0","null","stimuli/sequence_1_D5_400_-30.wav","null","tones","","","D5","400","-30"
"html-keyboard-response","297","1558505","0.0-264.0","5","1","ITFDR2","v1.0","2026","Did the final tone begin (1) early or (2) late?","49","response","","","D5","400","-30"
"html-button-response","298","1669906","0.0-265.0","5","1","ITFDR2","v1.0","109881.20000004768","<h3>You have completed section 3 of 8!</h3><p>When you are ready to continue, press the button below to begin the next section.</p><p><em>Please remember not to adjust your volume until the study has concluded.</em></p>","","break","0","","","",""
"audio-keyboard-response","299","1676869","0.0-266.0","5","1","ITFDR2","v1.0","null","stimuli/sequence_1_Fs7_600_20.wav","null","tones","","","Fs7","600","20"
"html-keyboard-response","300","1677489","0.0-267.0","5","1","ITFDR2","v1.0","618.9000000953674","Did the final tone begin (1) early or (2) late?","50","response","","","Fs7","600","20"
"audio-keyboard-response","301","1683629","0.0-268.0","5","1","ITFDR2","v1.0","null","stimuli/sequence_1_F7_600_30.wav","null","tones","","","F7","600","30"
"html-keyboard-response","302","1685271","0.0-269.0","5","1","ITFDR2","v1.0","1640.9000000953674","Did the final tone begin (1) early or (2) late?","49","response","","","F7","600","30"
"audio-keyboard-response","303","1691169","0.0-270.0","5","1","ITFDR2","v1.0","null","stimuli/sequence_1_Gs3_600_-10.wav","null","tones","","","Gs3","600","-10"
"html-keyboard-response","304","1693241","0.0-271.0","5","1","ITFDR2","v1.0","2070.600000023842","Did the final tone begin (1) early or (2) late?","49","response","","","Gs3","600","-10"
"audio-keyboard-response","305","1699209","0.0-272.0","5","1","ITFDR2","v1.0","null","stimuli/sequence_1_B3_600_0.wav","null","tones","","","B3","600","0"
"html-keyboard-response","306","1702544","0.0-273.0","5","1","ITFDR2","v1.0","3333.7000000476837","Did the final tone begin (1) early or (2) late?","49","response","","","B3","600","0"
"audio-keyboard-response","307","1708689","0.0-274.0","5","1","ITFDR2","v1.0","null","stimuli/sequence_1_Gs3_600_30.wav","null","tones","","","Gs3","600","30"
"html-keyboard-response","308","1711856","0.0-275.0","5","1","ITFDR2","v1.0","3164.4000000953674","Did the final tone begin (1) early or (2) late?","49","response","","","Gs3","600","30"
"audio-keyboard-response","309","1717869","0.0-276.0","5","1","ITFDR2","v1.0","null","stimuli/sequence_1_C7_600_10.wav","null","tones","","","C7","600","10"
"html-keyboard-response","310","1722040","0.0-277.0","5","1","ITFDR2","v1.0","4169.5","Did the final tone begin (1) early or (2) late?","49","response","","","C7","600","10"
"audio-keyboard-response","311","1728009","0.0-278.0","5","1","ITFDR2","v1.0","null","stimuli/sequence_1_Ds5_600_0.wav","null","tones","","","Ds5","600","0"
"html-keyboard-response","312","1730945","0.0-279.0","5","1","ITFDR2","v1.0","2934.5","Did the final tone begin (1) early or (2) late?","49","response","","","Ds5","600","0"
"audio-keyboard-response","313","1735449","0.0-280.0","5","1","ITFDR2","v1.0","null","stimuli/sequence_1_B7_400_-10.wav","null","tones","","","B7","400","-10"
"html-keyboard-response","314","1738298","0.0-281.0","5","1","ITFDR2","v1.0","2848","Did the final tone begin (1) early or (2) late?","49","response","","","B7","400","-10"
"audio-keyboard-response","315","1742939","0.0-282.0","5","1","ITFDR2","v1.0","null","stimuli/sequence_1_A7_400_20.wav","null","tones","","","A7","400","20"
"html-keyboard-response","316","1743867","0.0-283.0","5","1","ITFDR2","v1.0","926.3999999761581","Did the final tone begin (1) early or (2) late?","49","response","","","A7","400","20"
"audio-keyboard-response","317","1748390","0.0-284.0","5","1","ITFDR2","v1.0","null","stimuli/sequence_1_Fs3_400_-10.wav","null","tones","","","Fs3","400","-10"
"html-keyboard-response","318","1749941","0.0-285.0","5","1","ITFDR2","v1.0","1550.4000000953674","Did the final tone begin (1) early or (2) late?","49","response","","","Fs3","400","-10"
"audio-keyboard-response","319","1754609","0.0-286.0","5","1","ITFDR2","v1.0","null","stimuli/sequence_1_Ds3_400_30.wav","null","tones","","","Ds3","400","30"
"html-keyboard-response","320","1756394","0.0-287.0","5","1","ITFDR2","v1.0","1783.6000000238419","Did the final tone begin (1) early or (2) late?","49","response","","","Ds3","400","30"
"audio-keyboard-response","321","1760869","0.0-288.0","5","1","ITFDR2","v1.0","null","stimuli/sequence_1_Ds5_400_-20.wav","null","tones","","","Ds5","400","-20"
"html-keyboard-response","322","1763802","0.0-289.0","5","1","ITFDR2","v1.0","2931.399999976158","Did the final tone begin (1) early or (2) late?","49","response","","","Ds5","400","-20"
"audio-keyboard-response","323","1768289","0.0-290.0","5","1","ITFDR2","v1.0","null","stimuli/sequence_1_Ds3_400_-20.wav","null","tones","","","Ds3","400","-20"
"html-keyboard-response","324","1769641","0.0-291.0","5","1","ITFDR2","v1.0","1350.0999999046326","Did the final tone begin (1) early or (2) late?","49","response","","","Ds3","400","-20"
"audio-keyboard-response","325","1774069","0.0-292.0","5","1","ITFDR2","v1.0","null","stimuli/sequence_1_B3_400_-30.wav","null","tones","","","B3","400","-30"
"html-keyboard-response","326","1775482","0.0-293.0","5","1","ITFDR2","v1.0","1411.4000000953674","Did the final tone begin (1) early or (2) late?","49","response","","","B3","400","-30"
"audio-keyboard-response","327","1781269","0.0-294.0","5","1","ITFDR2","v1.0","null","stimuli/sequence_1_Ds5_600_-30.wav","null","tones","","","Ds5","600","-30"
"html-keyboard-response","328","1782187","0.0-295.0","5","1","ITFDR2","v1.0","916.8000000715256","Did the final tone begin (1) early or (2) late?","49","response","","","Ds5","600","-30"
"audio-keyboard-response","329","1788019","0.0-296.0","5","1","ITFDR2","v1.0","null","stimuli/sequence_1_Ds7_600_-20.wav","null","tones","","","Ds7","600","-20"
"html-keyboard-response","330","1789879","0.0-297.0","5","1","ITFDR2","v1.0","1858.5","Did the final tone begin (1) early or (2) late?","49","response","","","Ds7","600","-20"
"audio-keyboard-response","331","1795912","0.0-298.0","5","1","ITFDR2","v1.0","null","stimuli/sequence_1_Gs5_600_10.wav","null","tones","","","Gs5","600","10"
"html-keyboard-response","332","1796974","0.0-299.0","5","1","ITFDR2","v1.0","1060.2000000476837","Did the final tone begin (1) early or (2) late?","49","response","","","Gs5","600","10"
"audio-keyboard-response","333","1802813","0.0-300.0","5","1","ITFDR2","v1.0","null","stimuli/sequence_1_Gs5_600_-20.wav","null","tones","","","Gs5","600","-20"
"html-keyboard-response","334","1805988","0.0-301.0","5","1","ITFDR2","v1.0","3173.899999976158","Did the final tone begin (1) early or (2) late?","49","response","","","Gs5","600","-20"
"audio-keyboard-response","335","1811872","0.0-302.0","5","1","ITFDR2","v1.0","null","stimuli/sequence_1_Gs5_600_-10.wav","null","tones","","","Gs5","600","-10"
"html-keyboard-response","336","1823058","0.0-303.0","5","1","ITFDR2","v1.0","11185.100000023842","Did the final tone begin (1) early or (2) late?","49","response","","","Gs5","600","-10"
"audio-keyboard-response","337","1829022","0.0-304.0","5","1","ITFDR2","v1.0","null","stimuli/sequence_1_Gs7_600_0.wav","null","tones","","","Gs7","600","0"
"html-keyboard-response","338","1830274","0.0-305.0","5","1","ITFDR2","v1.0","1250.2999999523163","Did the final tone begin (1) early or (2) late?","49","response","","","Gs7","600","0"
"audio-keyboard-response","339","1836183","0.0-306.0","5","1","ITFDR2","v1.0","null","stimuli/sequence_1_C7_600_-10.wav","null","tones","","","C7","600","-10"
"html-keyboard-response","340","1837123","0.0-307.0","5","1","ITFDR2","v1.0","938.9000000953674","Did the final tone begin (1) early or (2) late?","50","response","","","C7","600","-10"
"audio-keyboard-response","341","1841793","0.0-308.0","5","1","ITFDR2","v1.0","null","stimuli/sequence_1_Gs5_400_30.wav","null","tones","","","Gs5","400","30"
"html-keyboard-response","342","1842323","0.0-309.0","5","1","ITFDR2","v1.0","528.6999999284744","Did the final tone begin (1) early or (2) late?","50","response","","","Gs5","400","30"
"audio-keyboard-response","343","1847012","0.0-310.0","5","1","ITFDR2","v1.0","null","stimuli/sequence_1_B7_400_30.wav","null","tones","","","B7","400","30"
"html-keyboard-response","344","1870806","0.0-311.0","5","1","ITFDR2","v1.0","23794.200000047684","Did the final tone begin (1) early or (2) late?","49","response","","","B7","400","30"
"audio-keyboard-response","345","1875411","0.0-312.0","5","1","ITFDR2","v1.0","null","stimuli/sequence_1_Ds7_400_10.wav","null","tones","","","Ds7","400","10"
"html-keyboard-response","346","1878222","0.0-313.0","5","1","ITFDR2","v1.0","2809.600000023842","Did the final tone begin (1) early or (2) late?","49","response","","","Ds7","400","10"
"audio-keyboard-response","347","1882872","0.0-314.0","5","1","ITFDR2","v1.0","null","stimuli/sequence_1_F5_400_20.wav","null","tones","","","F5","400","20"
"html-keyboard-response","348","1889158","0.0-315.0","5","1","ITFDR2","v1.0","6284.800000071526","Did the final tone begin (1) early or (2) late?","50","response","","","F5","400","20"
"audio-keyboard-response","349","1893731","0.0-316.0","5","1","ITFDR2","v1.0","null","stimuli/sequence_1_A5_400_0.wav","null","tones","","","A5","400","0"
"html-keyboard-response","350","1895146","0.0-317.0","5","1","ITFDR2","v1.0","1413.2999999523163","Did the final tone begin (1) early or (2) late?","49","response","","","A5","400","0"
"audio-keyboard-response","351","1899701","0.0-318.0","5","1","ITFDR2","v1.0","null","stimuli/sequence_1_B3_400_0.wav","null","tones","","","B3","400","0"
"html-keyboard-response","352","1904454","0.0-319.0","5","1","ITFDR2","v1.0","4752","Did the final tone begin (1) early or (2) late?","49","response","","","B3","400","0"
"audio-keyboard-response","353","1908901","0.0-320.0","5","1","ITFDR2","v1.0","null","stimuli/sequence_1_Fs7_400_-30.wav","null","tones","","","Fs7","400","-30"
"html-keyboard-response","354","1912963","0.0-321.0","5","1","ITFDR2","v1.0","4060.1999999284744","Did the final tone begin (1) early or (2) late?","49","response","","","Fs7","400","-30"
"audio-keyboard-response","355","1918791","0.0-322.0","5","1","ITFDR2","v1.0","null","stimuli/sequence_1_D3_600_-20.wav","null","tones","","","D3","600","-20"
"html-keyboard-response","356","1920303","0.0-323.0","5","1","ITFDR2","v1.0","1510.3999999761581","Did the final tone begin (1) early or (2) late?","49","response","","","D3","600","-20"
"audio-keyboard-response","357","1926091","0.0-324.0","5","1","ITFDR2","v1.0","null","stimuli/sequence_1_B3_600_-30.wav","null","tones","","","B3","600","-30"
"html-keyboard-response","358","1930548","0.0-325.0","5","1","ITFDR2","v1.0","4455","Did the final tone begin (1) early or (2) late?","49","response","","","B3","600","-30"
"audio-keyboard-response","359","1936343","0.0-326.0","5","1","ITFDR2","v1.0","null","stimuli/sequence_1_A7_600_-30.wav","null","tones","","","A7","600","-30"
"html-keyboard-response","360","1939557","0.0-327.0","5","1","ITFDR2","v1.0","3213","Did the final tone begin (1) early or (2) late?","49","response","","","A7","600","-30"
"audio-keyboard-response","361","1945633","0.0-328.0","5","1","ITFDR2","v1.0","null","stimuli/sequence_1_F3_600_20.wav","null","tones","","","F3","600","20"
"html-keyboard-response","362","1948762","0.0-329.0","5","1","ITFDR2","v1.0","3126.7999999523163","Did the final tone begin (1) early or (2) late?","49","response","","","F3","600","20"
"audio-keyboard-response","363","1954833","0.0-330.0","5","1","ITFDR2","v1.0","null","stimuli/sequence_1_F5_600_20.wav","null","tones","","","F5","600","20"
"html-keyboard-response","364","1962556","0.0-331.0","5","1","ITFDR2","v1.0","7721.300000071526","Did the final tone begin (1) early or (2) late?","49","response","","","F5","600","20"
"audio-keyboard-response","365","1968583","0.0-332.0","5","1","ITFDR2","v1.0","null","stimuli/sequence_1_C3_600_10.wav","null","tones","","","C3","600","10"
"html-keyboard-response","366","1969791","0.0-333.0","5","1","ITFDR2","v1.0","1206.8999999761581","Did the final tone begin (1) early or (2) late?","49","response","","","C3","600","10"
"audio-keyboard-response","367","1975933","0.0-334.0","5","1","ITFDR2","v1.0","null","stimuli/sequence_1_C5_600_30.wav","null","tones","","","C5","600","30"
"html-keyboard-response","368","1981412","0.0-335.0","5","1","ITFDR2","v1.0","5476.899999976158","Did the final tone begin (1) early or (2) late?","49","response","","","C5","600","30"
"audio-keyboard-response","369","1986063","0.0-336.0","5","1","ITFDR2","v1.0","null","stimuli/sequence_1_Fs3_400_20.wav","null","tones","","","Fs3","400","20"
"html-keyboard-response","370","1988328","0.0-337.0","5","1","ITFDR2","v1.0","2262.5","Did the final tone begin (1) early or (2) late?","49","response","","","Fs3","400","20"
"audio-keyboard-response","371","1992933","0.0-338.0","5","1","ITFDR2","v1.0","null","stimuli/sequence_1_F5_400_10.wav","null","tones","","","F5","400","10"
"html-keyboard-response","372","1994982","0.0-339.0","5","1","ITFDR2","v1.0","2047.7999999523163","Did the final tone begin (1) early or (2) late?","49","response","","","F5","400","10"
"audio-keyboard-response","373","1999453","0.0-340.0","5","1","ITFDR2","v1.0","null","stimuli/sequence_1_F7_400_-20.wav","null","tones","","","F7","400","-20"
"html-keyboard-response","374","2003244","0.0-341.0","5","1","ITFDR2","v1.0","3790.2000000476837","Did the final tone begin (1) early or (2) late?","49","response","","","F7","400","-20"
"audio-keyboard-response","375","2007753","0.0-342.0","5","1","ITFDR2","v1.0","null","stimuli/sequence_1_F5_400_-10.wav","null","tones","","","F5","400","-10"
"html-keyboard-response","376","2009359","0.0-343.0","5","1","ITFDR2","v1.0","1604.7000000476837","Did the final tone begin (1) early or (2) late?","49","response","","","F5","400","-10"
"audio-keyboard-response","377","2013793","0.0-344.0","5","1","ITFDR2","v1.0","null","stimuli/sequence_1_Fs5_400_-30.wav","null","tones","","","Fs5","400","-30"
"html-keyboard-response","378","2023880","0.0-345.0","5","1","ITFDR2","v1.0","10085.699999928474","Did the final tone begin (1) early or (2) late?","49","response","","","Fs5","400","-30"
"audio-keyboard-response","379","2028433","0.0-346.0","5","1","ITFDR2","v1.0","null","stimuli/sequence_1_F7_400_0.wav","null","tones","","","F7","400","0"
"html-keyboard-response","380","2030484","0.0-347.0","5","1","ITFDR2","v1.0","2050.100000023842","Did the final tone begin (1) early or (2) late?","49","response","","","F7","400","0"
"audio-keyboard-response","381","2035093","0.0-348.0","5","1","ITFDR2","v1.0","null","stimuli/sequence_1_Fs3_400_10.wav","null","tones","","","Fs3","400","10"
"html-keyboard-response","382","2037069","0.0-349.0","5","1","ITFDR2","v1.0","1975","Did the final tone begin (1) early or (2) late?","49","response","","","Fs3","400","10"
"html-button-response","383","2309808","0.0-350.0","5","1","ITFDR2","v1.0","271225.2999999523","<h3>You have completed section 4 of 8!</h3><p>When you are ready to continue, press the button below to begin the next section.</p><p><em>Please remember not to adjust your volume until the study has concluded.</em></p>","","break","0","","","",""
"audio-keyboard-response","384","2316837","0.0-351.0","5","1","ITFDR2","v1.0","null","stimuli/sequence_1_D5_600_30.wav","null","tones","","","D5","600","30"
"html-keyboard-response","385","2318448","0.0-352.0","5","1","ITFDR2","v1.0","1609","Did the final tone begin (1) early or (2) late?","49","response","","","D5","600","30"
"audio-keyboard-response","386","2324458","0.0-353.0","5","1","ITFDR2","v1.0","null","stimuli/sequence_1_Fs3_600_10.wav","null","tones","","","Fs3","600","10"
"html-keyboard-response","387","2327691","0.0-354.0","5","1","ITFDR2","v1.0","3232","Did the final tone begin (1) early or (2) late?","49","response","","","Fs3","600","10"
"audio-keyboard-response","388","2333647","0.0-355.0","5","1","ITFDR2","v1.0","null","stimuli/sequence_1_D5_600_0.wav","null","tones","","","D5","600","0"
"html-keyboard-response","389","2347032","0.0-356.0","5","1","ITFDR2","v1.0","13383","Did the final tone begin (1) early or (2) late?","49","response","","","D5","600","0"
"audio-keyboard-response","390","2353117","0.0-357.0","5","1","ITFDR2","v1.0","null","stimuli/sequence_1_Gs7_600_20.wav","null","tones","","","Gs7","600","20"
"html-keyboard-response","391","2354392","0.0-358.0","5","1","ITFDR2","v1.0","1273.1000000238419","Did the final tone begin (1) early or (2) late?","50","response","","","Gs7","600","20"
"audio-keyboard-response","392","2360167","0.0-359.0","5","1","ITFDR2","v1.0","null","stimuli/sequence_1_D3_600_-30.wav","null","tones","","","D3","600","-30"
"html-keyboard-response","393","2366477","0.0-360.0","5","1","ITFDR2","v1.0","6307.899999976158","Did the final tone begin (1) early or (2) late?","49","response","","","D3","600","-30"
"audio-keyboard-response","394","2372319","0.0-361.0","5","1","ITFDR2","v1.0","null","stimuli/sequence_1_B5_600_-20.wav","null","tones","","","B5","600","-20"
"html-keyboard-response","395","2374860","0.0-362.0","5","1","ITFDR2","v1.0","2539.2999999523163","Did the final tone begin (1) early or (2) late?","49","response","","","B5","600","-20"
"audio-keyboard-response","396","2380769","0.0-363.0","5","1","ITFDR2","v1.0","null","stimuli/sequence_1_Ds7_600_-10.wav","null","tones","","","Ds7","600","-10"
"html-keyboard-response","397","2383087","0.0-364.0","5","1","ITFDR2","v1.0","2316.899999976158","Did the final tone begin (1) early or (2) late?","49","response","","","Ds7","600","-10"
"audio-keyboard-response","398","2387729","0.0-365.0","5","1","ITFDR2","v1.0","null","stimuli/sequence_1_B3_400_20.wav","null","tones","","","B3","400","20"
"html-keyboard-response","399","2389593","0.0-366.0","5","1","ITFDR2","v1.0","1862.5","Did the final tone begin (1) early or (2) late?","49","response","","","B3","400","20"
"audio-keyboard-response","400","2394139","0.0-367.0","5","1","ITFDR2","v1.0","null","stimuli/sequence_1_D3_400_0.wav","null","tones","","","D3","400","0"
"html-keyboard-response","401","2395907","0.0-368.0","5","1","ITFDR2","v1.0","1766.8000000715256","Did the final tone begin (1) early or (2) late?","49","response","","","D3","400","0"
"audio-keyboard-response","402","2400559","0.0-369.0","5","1","ITFDR2","v1.0","null","stimuli/sequence_1_F7_400_20.wav","null","tones","","","F7","400","20"
"html-keyboard-response","403","2403408","0.0-370.0","5","1","ITFDR2","v1.0","2847.7000000476837","Did the final tone begin (1) early or (2) late?","49","response","","","F7","400","20"
"audio-keyboard-response","404","2407879","0.0-371.0","5","1","ITFDR2","v1.0","null","stimuli/sequence_1_A7_400_-20.wav","null","tones","","","A7","400","-20"
"html-keyboard-response","405","2409652","0.0-372.0","5","1","ITFDR2","v1.0","1771.8999999761581","Did the final tone begin (1) early or (2) late?","49","response","","","A7","400","-20"
"audio-keyboard-response","406","2414239","0.0-373.0","5","1","ITFDR2","v1.0","null","stimuli/sequence_1_B7_400_10.wav","null","tones","","","B7","400","10"
"html-keyboard-response","407","2415301","0.0-374.0","5","1","ITFDR2","v1.0","1060.3999999761581","Did the final tone begin (1) early or (2) late?","50","response","","","B7","400","10"
"audio-keyboard-response","408","2419999","0.0-375.0","5","1","ITFDR2","v1.0","null","stimuli/sequence_1_A7_400_30.wav","null","tones","","","A7","400","30"
"html-keyboard-response","409","2433259","0.0-376.0","5","1","ITFDR2","v1.0","13258.699999928474","Did the final tone begin (1) early or (2) late?","49","response","","","A7","400","30"
"audio-keyboard-response","410","2437699","0.0-377.0","5","1","ITFDR2","v1.0","null","stimuli/sequence_1_C7_400_-30.wav","null","tones","","","C7","400","-30"
"html-keyboard-response","411","2438976","0.0-378.0","5","1","ITFDR2","v1.0","1274.8999999761581","Did the final tone begin (1) early or (2) late?","49","response","","","C7","400","-30"
"audio-keyboard-response","412","2444880","0.0-379.0","5","1","ITFDR2","v1.0","null","stimuli/sequence_1_Ds5_600_-10.wav","null","tones","","","Ds5","600","-10"
"html-keyboard-response","413","2449064","0.0-380.0","5","1","ITFDR2","v1.0","4182.5","Did the final tone begin (1) early or (2) late?","49","response","","","Ds5","600","-10"
"audio-keyboard-response","414","2454920","0.0-381.0","5","1","ITFDR2","v1.0","null","stimuli/sequence_1_B3_600_-20.wav","null","tones","","","B3","600","-20"
"html-keyboard-response","415","2456009","0.0-382.0","5","1","ITFDR2","v1.0","1088.1000000238419","Did the final tone begin (1) early or (2) late?","49","response","","","B3","600","-20"
"audio-keyboard-response","416","2462019","0.0-383.0","5","1","ITFDR2","v1.0","null","stimuli/sequence_1_Ds5_600_10.wav","null","tones","","","Ds5","600","10"
"html-keyboard-response","417","2464591","0.0-384.0","5","1","ITFDR2","v1.0","2570.4000000953674","Did the final tone begin (1) early or (2) late?","50","response","","","Ds5","600","10"
"audio-keyboard-response","418","2470729","0.0-385.0","5","1","ITFDR2","v1.0","null","stimuli/sequence_1_C3_600_30.wav","null","tones","","","C3","600","30"
"html-keyboard-response","419","2472225","0.0-386.0","5","1","ITFDR2","v1.0","1494.3000000715256","Did the final tone begin (1) early or (2) late?","49","response","","","C3","600","30"
"audio-keyboard-response","420","2478299","0.0-387.0","5","1","ITFDR2","v1.0","null","stimuli/sequence_1_Fs3_600_20.wav","null","tones","","","Fs3","600","20"
"html-keyboard-response","421","2479726","0.0-388.0","5","1","ITFDR2","v1.0","1425.8000000715256","Did the final tone begin (1) early or (2) late?","49","response","","","Fs3","600","20"
"audio-keyboard-response","422","2485799","0.0-389.0","5","1","ITFDR2","v1.0","null","stimuli/sequence_1_Ds5_600_20.wav","null","tones","","","Ds5","600","20"
"html-keyboard-response","423","2488369","0.0-390.0","5","1","ITFDR2","v1.0","2568.2000000476837","Did the final tone begin (1) early or (2) late?","50","response","","","Ds5","600","20"
"audio-keyboard-response","424","2494330","0.0-391.0","5","1","ITFDR2","v1.0","null","stimuli/sequence_1_Ds7_600_0.wav","null","tones","","","Ds7","600","0"
"html-keyboard-response","425","2498067","0.0-392.0","5","1","ITFDR2","v1.0","3735.6999999284744","Did the final tone begin (1) early or (2) late?","49","response","","","Ds7","600","0"
"audio-keyboard-response","426","2502640","0.0-393.0","5","1","ITFDR2","v1.0","null","stimuli/sequence_1_C7_400_0.wav","null","tones","","","C7","400","0"
"html-keyboard-response","427","2508139","0.0-394.0","5","1","ITFDR2","v1.0","5497.5","Did the final tone begin (1) early or (2) late?","49","response","","","C7","400","0"
"audio-keyboard-response","428","2512650","0.0-395.0","5","1","ITFDR2","v1.0","null","stimuli/sequence_1_Gs3_400_-10.wav","null","tones","","","Gs3","400","-10"
"html-keyboard-response","429","2515508","0.0-396.0","5","1","ITFDR2","v1.0","2856.2999999523163","Did the final tone begin (1) early or (2) late?","49","response","","","Gs3","400","-10"
"audio-keyboard-response","430","2520000","0.0-397.0","5","1","ITFDR2","v1.0","null","stimuli/sequence_1_F3_400_-20.wav","null","tones","","","F3","400","-20"
"html-keyboard-response","431","2522362","0.0-398.0","5","1","ITFDR2","v1.0","2361","Did the final tone begin (1) early or (2) late?","49","response","","","F3","400","-20"
"audio-keyboard-response","432","2526960","0.0-399.0","5","1","ITFDR2","v1.0","null","stimuli/sequence_1_D5_400_10.wav","null","tones","","","D5","400","10"
"html-keyboard-response","433","2528195","0.0-400.0","5","1","ITFDR2","v1.0","1233.9000000953674","Did the final tone begin (1) early or (2) late?","49","response","","","D5","400","10"
"audio-keyboard-response","434","2532680","0.0-401.0","5","1","ITFDR2","v1.0","null","stimuli/sequence_1_Fs5_400_-20.wav","null","tones","","","Fs5","400","-20"
"html-keyboard-response","435","2536690","0.0-402.0","5","1","ITFDR2","v1.0","4008.2999999523163","Did the final tone begin (1) early or (2) late?","49","response","","","Fs5","400","-20"
"audio-keyboard-response","436","2541210","0.0-403.0","5","1","ITFDR2","v1.0","null","stimuli/sequence_1_B5_400_-10.wav","null","tones","","","B5","400","-10"
"html-keyboard-response","437","2542402","0.0-404.0","5","1","ITFDR2","v1.0","1190.8000000715256","Did the final tone begin (1) early or (2) late?","49","response","","","B5","400","-10"
"audio-keyboard-response","438","2546960","0.0-405.0","5","1","ITFDR2","v1.0","null","stimuli/sequence_1_C5_400_0.wav","null","tones","","","C5","400","0"
"html-keyboard-response","439","2548048","0.0-406.0","5","1","ITFDR2","v1.0","1087.1000000238419","Did the final tone begin (1) early or (2) late?","49","response","","","C5","400","0"
"audio-keyboard-response","440","2553900","0.0-407.0","5","1","ITFDR2","v1.0","null","stimuli/sequence_1_B7_600_-20.wav","null","tones","","","B7","600","-20"
"html-keyboard-response","441","2557780","0.0-408.0","5","1","ITFDR2","v1.0","3876.6999999284744","Did the final tone begin (1) early or (2) late?","49","response","","","B7","600","-20"
"audio-keyboard-response","442","2563811","0.0-409.0","5","1","ITFDR2","v1.0","null","stimuli/sequence_1_D7_600_10.wav","null","tones","","","D7","600","10"
"html-keyboard-response","443","2565023","0.0-410.0","5","1","ITFDR2","v1.0","1210.8999999761581","Did the final tone begin (1) early or (2) late?","50","response","","","D7","600","10"
"audio-keyboard-response","444","2571001","0.0-411.0","5","1","ITFDR2","v1.0","null","stimuli/sequence_1_F3_600_0.wav","null","tones","","","F3","600","0"
"html-keyboard-response","445","2573374","0.0-412.0","5","1","ITFDR2","v1.0","2372.600000023842","Did the final tone begin (1) early or (2) late?","49","response","","","F3","600","0"
"audio-keyboard-response","446","2579141","0.0-413.0","5","1","ITFDR2","v1.0","null","stimuli/sequence_1_A5_600_-30.wav","null","tones","","","A5","600","-30"
"html-keyboard-response","447","2582334","0.0-414.0","5","1","ITFDR2","v1.0","3191.7999999523163","Did the final tone begin (1) early or (2) late?","49","response","","","A5","600","-30"
"audio-keyboard-response","448","2588491","0.0-415.0","5","1","ITFDR2","v1.0","null","stimuli/sequence_1_A7_600_30.wav","null","tones","","","A7","600","30"
"html-keyboard-response","449","2592485","0.0-416.0","5","1","ITFDR2","v1.0","3992.899999976158","Did the final tone begin (1) early or (2) late?","50","response","","","A7","600","30"
"audio-keyboard-response","450","2598281","0.0-417.0","5","1","ITFDR2","v1.0","null","stimuli/sequence_1_D7_600_-30.wav","null","tones","","","D7","600","-30"
"html-keyboard-response","451","2603595","0.0-418.0","5","1","ITFDR2","v1.0","5312.299999952316","Did the final tone begin (1) early or (2) late?","49","response","","","D7","600","-30"
"audio-keyboard-response","452","2609501","0.0-419.0","5","1","ITFDR2","v1.0","null","stimuli/sequence_1_C3_600_-10.wav","null","tones","","","C3","600","-10"
"html-keyboard-response","453","2613251","0.0-420.0","5","1","ITFDR2","v1.0","3747.6999999284744","Did the final tone begin (1) early or (2) late?","49","response","","","C3","600","-10"
"audio-keyboard-response","454","2617771","0.0-421.0","5","1","ITFDR2","v1.0","null","stimuli/sequence_1_Ds7_400_-10.wav","null","tones","","","Ds7","400","-10"
"html-keyboard-response","455","2618943","0.0-422.0","5","1","ITFDR2","v1.0","1172.8999999761581","Did the final tone begin (1) early or (2) late?","49","response","","","Ds7","400","-10"
"audio-keyboard-response","456","2623368","0.0-423.0","5","1","ITFDR2","v1.0","null","stimuli/sequence_1_Ds3_400_-30.wav","null","tones","","","Ds3","400","-30"
"html-keyboard-response","457","2627730","0.0-424.0","5","1","ITFDR2","v1.0","4361","Did the final tone begin (1) early or (2) late?","49","response","","","Ds3","400","-30"
"audio-keyboard-response","458","2632179","0.0-425.0","5","1","ITFDR2","v1.0","null","stimuli/sequence_1_B5_400_-30.wav","null","tones","","","B5","400","-30"
"html-keyboard-response","459","2640005","0.0-426.0","5","1","ITFDR2","v1.0","7825.100000023842","Did the final tone begin (1) early or (2) late?","49","response","","","B5","400","-30"
"audio-keyboard-response","460","2644689","0.0-427.0","5","1","ITFDR2","v1.0","null","stimuli/sequence_1_D3_400_30.wav","null","tones","","","D3","400","30"
"html-keyboard-response","461","2647354","0.0-428.0","5","1","ITFDR2","v1.0","2662.5999999046326","Did the final tone begin (1) early or (2) late?","49","response","","","D3","400","30"
"audio-keyboard-response","462","2652038","0.0-429.0","5","1","ITFDR2","v1.0","null","stimuli/sequence_1_F5_400_30.wav","null","tones","","","F5","400","30"
"html-keyboard-response","463","2653270","0.0-430.0","5","1","ITFDR2","v1.0","1230.2000000476837","Did the final tone begin (1) early or (2) late?","49","response","","","F5","400","30"
"audio-keyboard-response","464","2657918","0.0-431.0","5","1","ITFDR2","v1.0","null","stimuli/sequence_1_B5_400_20.wav","null","tones","","","B5","400","20"
"html-keyboard-response","465","2658883","0.0-432.0","5","1","ITFDR2","v1.0","963","Did the final tone begin (1) early or (2) late?","50","response","","","B5","400","20"
"audio-keyboard-response","466","2663488","0.0-433.0","5","1","ITFDR2","v1.0","null","stimuli/sequence_1_Ds3_400_10.wav","null","tones","","","Ds3","400","10"
"html-keyboard-response","467","2665441","0.0-434.0","5","1","ITFDR2","v1.0","1951.6000000238419","Did the final tone begin (1) early or (2) late?","49","response","","","Ds3","400","10"
"html-button-response","468","2960633","0.0-435.0","5","1","ITFDR2","v1.0","293687.60000002384","<h3>You have completed section 5 of 8!</h3><p>When you are ready to continue, press the button below to begin the next section.</p><p><em>Please remember not to adjust your volume until the study has concluded.</em></p>","","break","0","","","",""
"audio-keyboard-response","469","2967600","0.0-436.0","5","1","ITFDR2","v1.0","null","stimuli/sequence_1_B5_600_20.wav","null","tones","","","B5","600","20"
"html-keyboard-response","470","2969237","0.0-437.0","5","1","ITFDR2","v1.0","1635.3000000715256","Did the final tone begin (1) early or (2) late?","50","response","","","B5","600","20"
"audio-keyboard-response","471","2975190","0.0-438.0","5","1","ITFDR2","v1.0","null","stimuli/sequence_1_Ds3_600_0.wav","null","tones","","","Ds3","600","0"
"html-keyboard-response","472","2977996","0.0-439.0","5","1","ITFDR2","v1.0","2804.5","Did the final tone begin (1) early or (2) late?","49","response","","","Ds3","600","0"
"audio-keyboard-response","473","2983769","0.0-440.0","5","1","ITFDR2","v1.0","null","stimuli/sequence_1_Gs5_600_-30.wav","null","tones","","","Gs5","600","-30"
"html-keyboard-response","474","2984982","0.0-441.0","5","1","ITFDR2","v1.0","1210.8999999761581","Did the final tone begin (1) early or (2) late?","49","response","","","Gs5","600","-30"
"audio-keyboard-response","475","2991049","0.0-442.0","5","1","ITFDR2","v1.0","null","stimuli/sequence_1_D7_600_20.wav","null","tones","","","D7","600","20"
"html-keyboard-response","476","2993962","0.0-443.0","5","1","ITFDR2","v1.0","2911","Did the final tone begin (1) early or (2) late?","49","response","","","D7","600","20"
"audio-keyboard-response","477","2999759","0.0-444.0","5","1","ITFDR2","v1.0","null","stimuli/sequence_1_Gs3_600_-30.wav","null","tones","","","Gs3","600","-30"
"html-keyboard-response","478","3003197","0.0-445.0","5","1","ITFDR2","v1.0","3436.100000023842","Did the final tone begin (1) early or (2) late?","49","response","","","Gs3","600","-30"
"audio-keyboard-response","479","3009270","0.0-446.0","5","1","ITFDR2","v1.0","null","stimuli/sequence_1_Gs3_600_20.wav","null","tones","","","Gs3","600","20"
"html-keyboard-response","480","3010121","0.0-447.0","5","1","ITFDR2","v1.0","849","Did the final tone begin (1) early or (2) late?","49","response","","","Gs3","600","20"
"audio-keyboard-response","481","3016129","0.0-448.0","5","1","ITFDR2","v1.0","null","stimuli/sequence_1_Fs5_600_10.wav","null","tones","","","Fs5","600","10"
"html-keyboard-response","482","3016532","0.0-449.0","5","1","ITFDR2","v1.0","401","Did the final tone begin (1) early or (2) late?","49","response","","","Fs5","600","10"
"audio-keyboard-response","483","3021232","0.0-450.0","5","1","ITFDR2","v1.0","null","stimuli/sequence_1_B3_400_30.wav","null","tones","","","B3","400","30"
"html-keyboard-response","484","3022769","0.0-451.0","5","1","ITFDR2","v1.0","1535.1000000238419","Did the final tone begin (1) early or (2) late?","49","response","","","B3","400","30"
"audio-keyboard-response","485","3027393","0.0-452.0","5","1","ITFDR2","v1.0","null","stimuli/sequence_1_D3_400_20.wav","null","tones","","","D3","400","20"
"html-keyboard-response","486","3029531","0.0-453.0","5","1","ITFDR2","v1.0","2135.7999999523163","Did the final tone begin (1) early or (2) late?","49","response","","","D3","400","20"
"audio-keyboard-response","487","3034132","0.0-454.0","5","1","ITFDR2","v1.0","null","stimuli/sequence_1_Fs5_400_10.wav","null","tones","","","Fs5","400","10"
"html-keyboard-response","488","3039438","0.0-455.0","5","1","ITFDR2","v1.0","5303.799999952316","Did the final tone begin (1) early or (2) late?","49","response","","","Fs5","400","10"
"audio-keyboard-response","489","3044122","0.0-456.0","5","1","ITFDR2","v1.0","null","stimuli/sequence_1_B5_400_30.wav","null","tones","","","B5","400","30"
"html-keyboard-response","490","3046324","0.0-457.0","5","1","ITFDR2","v1.0","2200","Did the final tone begin (1) early or (2) late?","49","response","","","B5","400","30"
"audio-keyboard-response","491","3050842","0.0-458.0","5","1","ITFDR2","v1.0","null","stimuli/sequence_1_C7_400_-10.wav","null","tones","","","C7","400","-10"
"html-keyboard-response","492","3054576","0.0-459.0","5","1","ITFDR2","v1.0","3731.6999999284744","Did the final tone begin (1) early or (2) late?","49","response","","","C7","400","-10"
"audio-keyboard-response","493","3059172","0.0-460.0","5","1","ITFDR2","v1.0","null","stimuli/sequence_1_F3_400_10.wav","null","tones","","","F3","400","10"
"html-keyboard-response","494","3064580","0.0-461.0","5","1","ITFDR2","v1.0","5405.900000095367","Did the final tone begin (1) early or (2) late?","49","response","","","F3","400","10"
"audio-keyboard-response","495","3069032","0.0-462.0","5","1","ITFDR2","v1.0","null","stimuli/sequence_1_D7_400_-30.wav","null","tones","","","D7","400","-30"
"html-keyboard-response","496","3071199","0.0-463.0","5","1","ITFDR2","v1.0","2164.7000000476837","Did the final tone begin (1) early or (2) late?","49","response","","","D7","400","-30"
"audio-keyboard-response","497","3077032","0.0-464.0","5","1","ITFDR2","v1.0","null","stimuli/sequence_1_A3_600_-20.wav","null","tones","","","A3","600","-20"
"html-keyboard-response","498","3079855","0.0-465.0","5","1","ITFDR2","v1.0","2821.399999976158","Did the final tone begin (1) early or (2) late?","49","response","","","A3","600","-20"
"audio-keyboard-response","499","3085873","0.0-466.0","5","1","ITFDR2","v1.0","null","stimuli/sequence_1_A3_600_10.wav","null","tones","","","A3","600","10"
"html-keyboard-response","500","3089674","0.0-467.0","5","1","ITFDR2","v1.0","3799.2000000476837","Did the final tone begin (1) early or (2) late?","49","response","","","A3","600","10"
"audio-keyboard-response","501","3095573","0.0-468.0","5","1","ITFDR2","v1.0","null","stimuli/sequence_1_F3_600_-10.wav","null","tones","","","F3","600","-10"
"html-keyboard-response","502","3098945","0.0-469.0","5","1","ITFDR2","v1.0","3370","Did the final tone begin (1) early or (2) late?","49","response","","","F3","600","-10"
"audio-keyboard-response","503","3104773","0.0-470.0","5","1","ITFDR2","v1.0","null","stimuli/sequence_1_Gs7_600_-20.wav","null","tones","","","Gs7","600","-20"
"html-keyboard-response","504","3106227","0.0-471.0","5","1","ITFDR2","v1.0","1452.6999999284744","Did the final tone begin (1) early or (2) late?","49","response","","","Gs7","600","-20"
"audio-keyboard-response","505","3112173","0.0-472.0","5","1","ITFDR2","v1.0","null","stimuli/sequence_1_A5_600_0.wav","null","tones","","","A5","600","0"
"html-keyboard-response","506","3115804","0.0-473.0","5","1","ITFDR2","v1.0","3629.2999999523163","Did the final tone begin (1) early or (2) late?","50","response","","","A5","600","0"
"audio-keyboard-response","507","3121953","0.0-474.0","5","1","ITFDR2","v1.0","null","stimuli/sequence_1_Ds7_600_30.wav","null","tones","","","Ds7","600","30"
"html-keyboard-response","508","3124637","0.0-475.0","5","1","ITFDR2","v1.0","2682.6999999284744","Did the final tone begin (1) early or (2) late?","50","response","","","Ds7","600","30"
"audio-keyboard-response","509","3130413","0.0-476.0","5","1","ITFDR2","v1.0","null","stimuli/sequence_1_C7_600_-30.wav","null","tones","","","C7","600","-30"
"html-keyboard-response","510","3134907","0.0-477.0","5","1","ITFDR2","v1.0","4492.5","Did the final tone begin (1) early or (2) late?","49","response","","","C7","600","-30"
"audio-keyboard-response","511","3139513","0.0-478.0","5","1","ITFDR2","v1.0","null","stimuli/sequence_1_F7_400_10.wav","null","tones","","","F7","400","10"
"html-keyboard-response","512","3146172","0.0-479.0","5","1","ITFDR2","v1.0","6657.299999952316","Did the final tone begin (1) early or (2) late?","49","response","","","F7","400","10"
"audio-keyboard-response","513","3150754","0.0-480.0","5","1","ITFDR2","v1.0","null","stimuli/sequence_1_Fs3_400_0.wav","null","tones","","","Fs3","400","0"
"html-keyboard-response","514","3157216","0.0-481.0","5","1","ITFDR2","v1.0","6460.399999976158","Did the final tone begin (1) early or (2) late?","49","response","","","Fs3","400","0"
"audio-keyboard-response","515","3161873","0.0-482.0","5","1","ITFDR2","v1.0","null","stimuli/sequence_1_A5_400_20.wav","null","tones","","","A5","400","20"
"html-keyboard-response","516","3164921","0.0-483.0","5","1","ITFDR2","v1.0","3046.2999999523163","Did the final tone begin (1) early or (2) late?","49","response","","","A5","400","20"
"audio-keyboard-response","517","3169404","0.0-484.0","5","1","ITFDR2","v1.0","null","stimuli/sequence_1_C3_400_-20.wav","null","tones","","","C3","400","-20"
"html-keyboard-response","518","3177513","0.0-485.0","5","1","ITFDR2","v1.0","8107.200000047684","Did the final tone begin (1) early or (2) late?","49","response","","","C3","400","-20"
"audio-keyboard-response","519","3182153","0.0-486.0","5","1","ITFDR2","v1.0","null","stimuli/sequence_1_Fs7_400_20.wav","null","tones","","","Fs7","400","20"
"html-keyboard-response","520","3183106","0.0-487.0","5","1","ITFDR2","v1.0","950.8999999761581","Did the final tone begin (1) early or (2) late?","49","response","","","Fs7","400","20"
"audio-keyboard-response","521","3187673","0.0-488.0","5","1","ITFDR2","v1.0","null","stimuli/sequence_1_B7_400_0.wav","null","tones","","","B7","400","0"
"html-keyboard-response","522","3189106","0.0-489.0","5","1","ITFDR2","v1.0","1431.7000000476837","Did the final tone begin (1) early or (2) late?","49","response","","","B7","400","0"
"audio-keyboard-response","523","3193613","0.0-490.0","5","1","ITFDR2","v1.0","null","stimuli/sequence_1_Gs5_400_-10.wav","null","tones","","","Gs5","400","-10"
"html-keyboard-response","524","3193991","0.0-491.0","5","1","ITFDR2","v1.0","376.6999999284744","Did the final tone begin (1) early or (2) late?","49","response","","","Gs5","400","-10"
"audio-keyboard-response","525","3200153","0.0-492.0","5","1","ITFDR2","v1.0","null","stimuli/sequence_1_Ds3_600_30.wav","null","tones","","","Ds3","600","30"
"html-keyboard-response","526","3200975","0.0-493.0","5","1","ITFDR2","v1.0","820.2999999523163","Did the final tone begin (1) early or (2) late?","50","response","","","Ds3","600","30"
"audio-keyboard-response","527","3206892","0.0-494.0","5","1","ITFDR2","v1.0","null","stimuli/sequence_1_B5_600_-10.wav","null","tones","","","B5","600","-10"
"html-keyboard-response","528","3207390","0.0-495.0","5","1","ITFDR2","v1.0","496.39999997615814","Did the final tone begin (1) early or (2) late?","49","response","","","B5","600","-10"
"audio-keyboard-response","529","3213232","0.0-496.0","5","1","ITFDR2","v1.0","null","stimuli/sequence_1_C5_600_-20.wav","null","tones","","","C5","600","-20"
"html-keyboard-response","530","3221006","0.0-497.0","5","1","ITFDR2","v1.0","7771.700000047684","Did the final tone begin (1) early or (2) late?","49","response","","","C5","600","-20"
"audio-keyboard-response","531","3227012","0.0-498.0","5","1","ITFDR2","v1.0","null","stimuli/sequence_1_Fs7_600_10.wav","null","tones","","","Fs7","600","10"
"html-keyboard-response","532","3232975","0.0-499.0","5","1","ITFDR2","v1.0","5960.799999952316","Did the final tone begin (1) early or (2) late?","49","response","","","Fs7","600","10"
"audio-keyboard-response","533","3238953","0.0-500.0","5","1","ITFDR2","v1.0","null","stimuli/sequence_1_Fs7_600_0.wav","null","tones","","","Fs7","600","0"
"html-keyboard-response","534","3240104","0.0-501.0","5","1","ITFDR2","v1.0","1149.2000000476837","Did the final tone begin (1) early or (2) late?","49","response","","","Fs7","600","0"
"audio-keyboard-response","535","3246253","0.0-502.0","5","1","ITFDR2","v1.0","null","stimuli/sequence_1_A5_600_30.wav","null","tones","","","A5","600","30"
"html-keyboard-response","536","3248290","0.0-503.0","5","1","ITFDR2","v1.0","2035.8999999761581","Did the final tone begin (1) early or (2) late?","49","response","","","A5","600","30"
"audio-keyboard-response","537","3254172","0.0-504.0","5","1","ITFDR2","v1.0","null","stimuli/sequence_1_D7_600_-10.wav","null","tones","","","D7","600","-10"
"html-keyboard-response","538","3255051","0.0-505.0","5","1","ITFDR2","v1.0","877.2999999523163","Did the final tone begin (1) early or (2) late?","49","response","","","D7","600","-10"
"audio-keyboard-response","539","3259573","0.0-506.0","5","1","ITFDR2","v1.0","null","stimuli/sequence_1_B3_400_-10.wav","null","tones","","","B3","400","-10"
"html-keyboard-response","540","3260706","0.0-507.0","5","1","ITFDR2","v1.0","1131.3999999761581","Did the final tone begin (1) early or (2) late?","49","response","","","B3","400","-10"
"audio-keyboard-response","541","3265153","0.0-508.0","5","1","ITFDR2","v1.0","null","stimuli/sequence_1_Gs3_400_-30.wav","null","tones","","","Gs3","400","-30"
"html-keyboard-response","542","3266620","0.0-509.0","5","1","ITFDR2","v1.0","1465.1000000238419","Did the final tone begin (1) early or (2) late?","50","response","","","Gs3","400","-30"
"audio-keyboard-response","543","3271283","0.0-510.0","5","1","ITFDR2","v1.0","null","stimuli/sequence_1_Gs7_400_30.wav","null","tones","","","Gs7","400","30"
"html-keyboard-response","544","3272620","0.0-511.0","5","1","ITFDR2","v1.0","1335.5","Did the final tone begin (1) early or (2) late?","49","response","","","Gs7","400","30"
"audio-keyboard-response","545","3277173","0.0-512.0","5","1","ITFDR2","v1.0","null","stimuli/sequence_1_Gs5_400_0.wav","null","tones","","","Gs5","400","0"
